thisN,thisTrialN,thisRepN,mouse.x,mouse.y,mouse.leftButton,mouse.midButton,mouse.rightButton,mouse.time,mouse.clicked_name,trials.thisRepN,trials.thisTrialN,trials.thisN,trials.thisIndex,thisRow.t,notes,num_distr,trial.started,fixation.started,target.started,mouse.started,trial.stopped,trials.mouse.x,trials.mouse.y,trials.mouse.leftButton,trials.mouse.midButton,trials.mouse.rightButton,trials.mouse.time,trials.mouse.clicked_name,participant,session,date,expName,psychopyVersion,frameRate,expStart,
0,0,0,[-0.21],[0.28833333333333333],[1],[0],[0],[4.165418299846351],['target'],0,0,0,0,0.06809510011225939,,10,0.05396289983764291,0.06809510011225939,0.06809510011225939,0.0536591000854969,4.219801499973983,[-0.21],[0.28833333333333333],[1],[0],[0],[4.165418299846351],['target'],01,001,2024-10-10_11h43.45.220,Visual Search,2024.2.1post4,59.72762997644077,2024-10-10 11h43.57.971987 +0530,
1,0,1,[-0.26166666666666666],[0.08166666666666667],[1],[0],[0],[1.1027060998603702],['target'],1,0,1,0,4.248201999813318,,5,4.2344602001830935,4.248201999813318,4.248201999813318,0.014482300262898207,5.337605000007898,[-0.26166666666666666],[0.08166666666666667],[1],[0],[0],[1.1027060998603702],['target'],01,001,2024-10-10_11h43.45.220,Visual Search,2024.2.1post4,59.72762997644077,2024-10-10 11h43.57.971987 +0530,
2,0,2,[-0.48833333333333334],[-0.11166666666666666],[1],[0],[0],[1.266594999935478],['target'],2,0,2,0,5.364791399799287,,5,5.353144099935889,5.364791399799287,5.364791399799287,0.015413600020110607,6.620217800140381,[-0.48833333333333334],[-0.11166666666666666],[1],[0],[0],[1.266594999935478],['target'],01,001,2024-10-10_11h43.45.220,Visual Search,2024.2.1post4,59.72762997644077,2024-10-10 11h43.57.971987 +0530,
3,0,3,[0.19666666666666666],[0.35833333333333334],[1],[0],[0],[1.1163192000240088],[None],3,0,3,0,6.648005200084299,,5,6.6353878998197615,6.648005200084299,6.648005200084299,0.015033000148832798,7.7521184999495745,[0.19666666666666666],[0.35833333333333334],[1],[0],[0],[1.1163192000240088],[None],01,001,2024-10-10_11h43.45.220,Visual Search,2024.2.1post4,59.72762997644077,2024-10-10 11h43.57.971987 +0530,
4,0,4,[0.36333333333333334],[0.28],[1],[0],[0],[1.9524226002395153],['target'],4,0,4,0,7.782184099778533,,5,7.7671679998748,7.782184099778533,7.782184099778533,0.014918100088834763,9.720058599952608,[0.36333333333333334],[0.28],[1],[0],[0],[1.9524226002395153],['target'],01,001,2024-10-10_11h43.45.220,Visual Search,2024.2.1post4,59.72762997644077,2024-10-10 11h43.57.971987 +0530,
5,0,5,[-0.19],[0.17166666666666666],[1],[0],[0],[1.1666585002094507],['target'],5,0,5,0,9.764345900155604,,10,9.752026800066233,9.764345900155604,9.764345900155604,0.03183199977502227,10.919099499937147,[-0.19],[0.17166666666666666],[1],[0],[0],[1.1666585002094507],['target'],01,001,2024-10-10_11h43.45.220,Visual Search,2024.2.1post4,59.72762997644077,2024-10-10 11h43.57.971987 +0530,
6,0,6,[-0.08333333333333333],[0.24833333333333332],[1],[0],[0],[1.0191267002373934],['target'],6,0,6,0,10.962181000038981,,10,10.94978340016678,10.962181000038981,10.962181000038981,0.030457499902695417,11.969374800100923,[-0.08333333333333333],[0.24833333333333332],[1],[0],[0],[1.0191267002373934],['target'],01,001,2024-10-10_11h43.45.220,Visual Search,2024.2.1post4,59.72762997644077,2024-10-10 11h43.57.971987 +0530,
7,0,7,[0.41833333333333333],[0.21666666666666667],[1],[0],[0],[1.2946194997057319],['target'],7,0,7,0,12.022921599913388,,10,12.00894120009616,12.022921599913388,12.022921599913388,0.03931679995730519,13.304020300041884,[0.41833333333333333],[0.21666666666666667],[1],[0],[0],[1.2946194997057319],['target'],01,001,2024-10-10_11h43.45.220,Visual Search,2024.2.1post4,59.72762997644077,2024-10-10 11h43.57.971987 +0530,
8,0,8,[-0.23],[0.4633333333333333],[1],[0],[0],[2.918534600175917],['target'],8,0,8,0,13.351642400026321,,10,13.334873199928552,13.351642400026321,13.351642400026321,0.030749599914997816,16.25383449997753,[-0.23],[0.4633333333333333],[1],[0],[0],[2.918534600175917],['target'],01,001,2024-10-10_11h43.45.220,Visual Search,2024.2.1post4,59.72762997644077,2024-10-10 11h43.57.971987 +0530,
9,0,9,[0.405],[0.021666666666666667],[1],[0],[0],[1.7840909999795258],['target'],9,0,9,0,16.281426900066435,,5,16.2683557998389,16.281426900066435,16.281426900066435,0.014356900006532669,18.052929599769413,[0.405],[0.021666666666666667],[1],[0],[0],[1.7840909999795258],['target'],01,001,2024-10-10_11h43.45.220,Visual Search,2024.2.1post4,59.72762997644077,2024-10-10 11h43.57.971987 +0530,
10,0,10,[0.47],[0.275],[1],[0],[0],[1.299131099600345],['target'],10,0,10,0,18.080334399826825,,5,18.070195899810642,18.080334399826825,18.080334399826825,0.017105399630963802,19.36975529976189,[0.47],[0.275],[1],[0],[0],[1.299131099600345],['target'],01,001,2024-10-10_11h43.45.220,Visual Search,2024.2.1post4,59.72762997644077,2024-10-10 11h43.57.971987 +0530,
11,0,11,[0.12333333333333334],[0.08666666666666667],[1],[0],[0],[1.6369494004175067],['target'],11,0,11,0,19.413372700102627,,10,19.39930129982531,19.413372700102627,19.413372700102627,0.029379799962043762,21.036870799958706,[0.12333333333333334],[0.08666666666666667],[1],[0],[0],[1.6369494004175067],['target'],01,001,2024-10-10_11h43.45.220,Visual Search,2024.2.1post4,59.72762997644077,2024-10-10 11h43.57.971987 +0530,
12,0,12,[0.295],[-0.025],[1],[0],[0],[1.9361944999545813],['target'],12,0,12,0,21.076616100035608,,10,21.0651350999251,21.076616100035608,21.076616100035608,0.028038000222295523,23.00174120021984,[0.295],[-0.025],[1],[0],[0],[1.9361944999545813],['target'],01,001,2024-10-10_11h43.45.220,Visual Search,2024.2.1post4,59.72762997644077,2024-10-10 11h43.57.971987 +0530,
13,0,13,[-0.065],[0.39666666666666667],[1],[0],[0],[1.3691873997449875],['target'],13,0,13,0,23.030463700182736,,5,23.016888299956918,23.030463700182736,23.030463700182736,0.014987800270318985,24.386614100076258,[-0.065],[0.39666666666666667],[1],[0],[0],[1.3691873997449875],['target'],01,001,2024-10-10_11h43.45.220,Visual Search,2024.2.1post4,59.72762997644077,2024-10-10 11h43.57.971987 +0530,
14,0,14,[0.075],[-0.37666666666666665],[1],[0],[0],[2.652732899878174],['target'],14,0,14,0,24.428027499932796,,10,24.416259000077844,24.428027499932796,24.428027499932796,0.02946919994428754,27.069509599823505,[0.075],[-0.37666666666666665],[1],[0],[0],[2.652732899878174],['target'],01,001,2024-10-10_11h43.45.220,Visual Search,2024.2.1post4,59.72762997644077,2024-10-10 11h43.57.971987 +0530,
15,0,15,[-0.028333333333333332],[-0.2733333333333333],[1],[0],[0],[1.9481795998290181],['target'],15,0,15,0,27.096727599855512,,5,27.08680360019207,27.096727599855512,27.096727599855512,0.017089299857616425,29.03539129998535,[-0.028333333333333332],[-0.2733333333333333],[1],[0],[0],[1.9481795998290181],['target'],01,001,2024-10-10_11h43.45.220,Visual Search,2024.2.1post4,59.72762997644077,2024-10-10 11h43.57.971987 +0530,
16,0,16,[0.24666666666666667],[-0.16333333333333333],[1],[0],[0],[1.7029418000020087],['target'],16,0,16,0,29.063847600016743,,5,29.050051200203598,29.063847600016743,29.063847600016743,0.014463899657130241,30.75345649989322,[0.24666666666666667],[-0.16333333333333333],[1],[0],[0],[1.7029418000020087],['target'],01,001,2024-10-10_11h43.45.220,Visual Search,2024.2.1post4,59.72762997644077,2024-10-10 11h43.57.971987 +0530,
17,0,17,[0.065],[0.46],[1],[0],[0],[4.2366018001921475],['target'],17,0,17,0,30.795818000100553,,10,30.78174789994955,30.795818000100553,30.795818000100553,0.02816639980301261,35.01875909976661,[0.065],[0.46],[1],[0],[0],[4.2366018001921475],['target'],01,001,2024-10-10_11h43.45.220,Visual Search,2024.2.1post4,59.72762997644077,2024-10-10 11h43.57.971987 +0530,
18,0,18,[-0.175],[-0.41],[1],[0],[0],[1.1671294001862407],['target'],18,0,18,0,35.04670100007206,,5,35.03546930011362,35.04670100007206,35.04670100007206,0.016556999646127224,36.203017400112,[-0.175],[-0.41],[1],[0],[0],[1.1671294001862407],['target'],01,001,2024-10-10_11h43.45.220,Visual Search,2024.2.1post4,59.72762997644077,2024-10-10 11h43.57.971987 +0530,
19,0,19,[-0.21833333333333332],[-0.36833333333333335],[1],[0],[0],[1.5369465998373926],['target'],19,0,19,0,36.24362940015271,,10,36.2317940001376,36.24362940015271,36.24362940015271,0.028609300032258034,37.76917119976133,[-0.21833333333333332],[-0.36833333333333335],[1],[0],[0],[1.5369465998373926],['target'],01,001,2024-10-10_11h43.45.220,Visual Search,2024.2.1post4,59.72762997644077,2024-10-10 11h43.57.971987 +0530,
20,0,20,[-0.19833333333333333],[0.395],[1],[0],[0],[1.068354899995029],['target'],20,0,20,0,37.813123899977654,,10,37.800550899934024,37.813123899977654,37.813123899977654,0.031168800313025713,38.869375799782574,[-0.19833333333333333],[0.395],[1],[0],[0],[1.068354899995029],['target'],01,001,2024-10-10_11h43.45.220,Visual Search,2024.2.1post4,59.72762997644077,2024-10-10 11h43.57.971987 +0530,
21,0,21,[0.008333333333333333],[0.155],[1],[0],[0],[1.2191364001482725],['target'],21,0,21,0,38.89698830014095,,5,38.883668900001794,38.89698830014095,38.89698830014095,0.01405680039897561,40.103210700210184,[0.008333333333333333],[0.155],[1],[0],[0],[1.2191364001482725],['target'],01,001,2024-10-10_11h43.45.220,Visual Search,2024.2.1post4,59.72762997644077,2024-10-10 11h43.57.971987 +0530,
22,0,22,[0.30833333333333335],[0.33],[1],[0],[0],[1.7684055003337562],['target'],22,0,22,0,40.130293199792504,,5,40.11724800011143,40.130293199792504,40.130293199792504,0.013907600194215775,41.88612180016935,[0.30833333333333335],[0.33],[1],[0],[0],[1.7684055003337562],['target'],01,001,2024-10-10_11h43.45.220,Visual Search,2024.2.1post4,59.72762997644077,2024-10-10 11h43.57.971987 +0530,
23,0,23,[-0.3233333333333333],[-0.19333333333333333],[1],[0],[0],[1.4687121999450028],['target'],23,0,23,0,41.928678600117564,,10,41.91672299988568,41.928678600117564,41.928678600117564,0.030432899948209524,43.38589069992304,[-0.3233333333333333],[-0.19333333333333333],[1],[0],[0],[1.4687121999450028],['target'],01,001,2024-10-10_11h43.45.220,Visual Search,2024.2.1post4,59.72762997644077,2024-10-10 11h43.57.971987 +0530,
24,0,24,[-0.47],[-0.465],[1],[0],[0],[1.7354954998008907],['target'],24,0,24,0,43.413514900021255,,5,43.40036999993026,43.413514900021255,43.413514900021255,0.014251299668103456,45.13626840012148,[-0.47],[-0.465],[1],[0],[0],[1.7354954998008907],['target'],01,001,2024-10-10_11h43.45.220,Visual Search,2024.2.1post4,59.72762997644077,2024-10-10 11h43.57.971987 +0530,
25,0,25,[-0.056666666666666664],[0.4533333333333333],[1],[0],[0],[1.303273200057447],['target'],25,0,25,0,45.18178529990837,,10,45.16742300009355,45.18178529990837,45.18178529990837,0.031034099869430065,46.47121249977499,[-0.056666666666666664],[0.4533333333333333],[1],[0],[0],[1.303273200057447],['target'],01,001,2024-10-10_11h43.45.220,Visual Search,2024.2.1post4,59.72762997644077,2024-10-10 11h43.57.971987 +0530,
26,0,26,[-0.175],[0.2966666666666667],[1],[0],[0],[1.5174083998426795],['target'],26,0,26,0,46.4966472000815,,5,46.48494170000777,46.4966472000815,46.4966472000815,0.013568999711424112,48.00274020014331,[-0.175],[0.2966666666666667],[1],[0],[0],[1.5174083998426795],['target'],01,001,2024-10-10_11h43.45.220,Visual Search,2024.2.1post4,59.72762997644077,2024-10-10 11h43.57.971987 +0530,
27,0,27,[-0.415],[-0.028333333333333332],[1],[0],[0],[1.4679357996210456],['target'],27,0,27,0,48.02982719987631,,5,48.017396999988705,48.02982719987631,48.02982719987631,0.01454159989953041,49.48575059976429,[-0.415],[-0.028333333333333332],[1],[0],[0],[1.4679357996210456],['target'],01,001,2024-10-10_11h43.45.220,Visual Search,2024.2.1post4,59.72762997644077,2024-10-10 11h43.57.971987 +0530,
28,0,28,[-0.42],[0.13],[1],[0],[0],[1.4853910002857447],['target'],28,0,28,0,49.52925459994003,,10,49.517328899819404,49.52925459994003,49.52925459994003,0.03140849992632866,51.00321590015665,[-0.42],[0.13],[1],[0],[0],[1.4853910002857447],['target'],01,001,2024-10-10_11h43.45.220,Visual Search,2024.2.1post4,59.72762997644077,2024-10-10 11h43.57.971987 +0530,
29,0,29,[0.395],[-0.10666666666666667],[1],[0],[0],[1.7383353998884559],['target'],29,0,29,0,51.04689780017361,,10,51.03052530018613,51.04689780017361,51.04689780017361,0.02715589990839362,52.769276100210845,[0.395],[-0.10666666666666667],[1],[0],[0],[1.7383353998884559],['target'],01,001,2024-10-10_11h43.45.220,Visual Search,2024.2.1post4,59.72762997644077,2024-10-10 11h43.57.971987 +0530,
30,0,30,[-0.02666666666666667],[0.355],[1],[0],[0],[1.267936300020665],['target'],30,0,30,0,52.796842200215906,,5,52.78365720016882,52.796842200215906,52.796842200215906,0.01423039985820651,54.05200760019943,[-0.02666666666666667],[0.355],[1],[0],[0],[1.267936300020665],['target'],01,001,2024-10-10_11h43.45.220,Visual Search,2024.2.1post4,59.72762997644077,2024-10-10 11h43.57.971987 +0530,
31,0,31,[-0.095],[-0.021666666666666667],[1],[0],[0],[1.4726359997875988],['target'],31,0,31,0,54.09031330002472,,10,54.07940459996462,54.09031330002472,54.09031330002472,0.027267000172287226,55.55248410021886,[-0.095],[-0.021666666666666667],[1],[0],[0],[1.4726359997875988],['target'],01,001,2024-10-10_11h43.45.220,Visual Search,2024.2.1post4,59.72762997644077,2024-10-10 11h43.57.971987 +0530,
32,0,32,[-0.3983333333333333],[0.16166666666666665],[1],[0],[0],[1.33875390002504],['target'],32,0,32,0,55.593002799898386,,10,55.5792682999745,55.593002799898386,55.593002799898386,0.026626099832355976,56.91845030011609,[-0.3983333333333333],[0.16166666666666665],[1],[0],[0],[1.33875390002504],['target'],01,001,2024-10-10_11h43.45.220,Visual Search,2024.2.1post4,59.72762997644077,2024-10-10 11h43.57.971987 +0530,
33,0,33,[-0.335],[0.15333333333333332],[1],[0],[0],[1.0516057000495493],['target'],33,0,33,0,56.9466122998856,,5,56.93340090010315,56.9466122998856,56.9466122998856,0.014791199937462807,57.98550399998203,[-0.335],[0.15333333333333332],[1],[0],[0],[1.0516057000495493],['target'],01,001,2024-10-10_11h43.45.220,Visual Search,2024.2.1post4,59.72762997644077,2024-10-10 11h43.57.971987 +0530,
34,0,34,[-0.06666666666666667],[-0.165],[1],[0],[0],[1.5566471000202],['target'],34,0,34,0,58.023928199894726,,10,58.01197349978611,58.023928199894726,58.023928199894726,0.02634180011227727,59.56905290018767,[-0.06666666666666667],[-0.165],[1],[0],[0],[1.5566471000202],['target'],01,001,2024-10-10_11h43.45.220,Visual Search,2024.2.1post4,59.72762997644077,2024-10-10 11h43.57.971987 +0530,
35,0,35,[0.22666666666666666],[0.42],[1],[0],[0],[1.600634400267154],['target'],35,0,35,0,59.59672409994528,,5,59.58475300017744,59.59672409994528,59.59672409994528,0.015491600148379803,61.18583009997383,[0.22666666666666666],[0.42],[1],[0],[0],[1.600634400267154],['target'],01,001,2024-10-10_11h43.45.220,Visual Search,2024.2.1post4,59.72762997644077,2024-10-10 11h43.57.971987 +0530,
36,0,36,[-0.04666666666666667],[0.42],[1],[0],[0],[2.4009020002558827],['target'],36,0,36,0,61.212934699840844,,5,61.20080119976774,61.212934699840844,61.212934699840844,0.014849400147795677,63.60217319987714,[-0.04666666666666667],[0.42],[1],[0],[0],[2.4009020002558827],['target'],01,001,2024-10-10_11h43.45.220,Visual Search,2024.2.1post4,59.72762997644077,2024-10-10 11h43.57.971987 +0530,
37,0,37,[-0.22833333333333333],[0.425],[1],[0],[0],[1.9887463999912143],['target'],37,0,37,0,63.64156740019098,,10,63.62938959989697,63.64156740019098,63.64156740019098,0.027085499837994576,65.6185436998494,[-0.22833333333333333],[0.425],[1],[0],[0],[1.9887463999912143],['target'],01,001,2024-10-10_11h43.45.220,Visual Search,2024.2.1post4,59.72762997644077,2024-10-10 11h43.57.971987 +0530,
38,0,38,[-0.28],[-0.09],[1],[0],[0],[1.5832765996456146],['target'],38,0,38,0,65.64641400007531,,5,65.63501949980855,65.64641400007531,65.64641400007531,0.016248300205916166,67.21879879990593,[-0.28],[-0.09],[1],[0],[0],[1.5832765996456146],['target'],01,001,2024-10-10_11h43.45.220,Visual Search,2024.2.1post4,59.72762997644077,2024-10-10 11h43.57.971987 +0530,
39,0,39,[0.2916666666666667],[0.405],[1],[0],[0],[2.8896488999016583],['target'],39,0,39,0,67.25792100001127,,10,67.24608680000529,67.25792100001127,67.25792100001127,0.027159699704498053,70.13619090011343,[0.2916666666666667],[0.405],[1],[0],[0],[2.8896488999016583],['target'],01,001,2024-10-10_11h43.45.220,Visual Search,2024.2.1post4,59.72762997644077,2024-10-10 11h43.57.971987 +0530,
40,0,40,[-0.40166666666666667],[0.14166666666666666],[1],[0],[0],[1.4174028001725674],['target'],40,0,40,0,70.16284159990028,,5,70.15103919990361,70.16284159990028,70.16284159990028,0.01469310000538826,71.56886219978333,[-0.40166666666666667],[0.14166666666666666],[1],[0],[0],[1.4174028001725674],['target'],01,001,2024-10-10_11h43.45.220,Visual Search,2024.2.1post4,59.72762997644077,2024-10-10 11h43.57.971987 +0530,
41,0,41,[-0.345],[-0.17166666666666666],[1],[0],[0],[1.1504371999762952],['target'],41,0,41,0,71.59654669975862,,5,71.58410579990596,71.59654669975862,71.59654669975862,0.015058099757879972,72.735175000038,[-0.345],[-0.17166666666666666],[1],[0],[0],[1.1504371999762952],['target'],01,001,2024-10-10_11h43.45.220,Visual Search,2024.2.1post4,59.72762997644077,2024-10-10 11h43.57.971987 +0530,
42,0,42,[0.4216666666666667],[0.365],[1],[0],[0],[2.1153595000505447],['target'],42,0,42,0,72.76468789996579,,5,72.75402639992535,72.76468789996579,72.76468789996579,0.018656800035387278,74.86998140020296,[0.4216666666666667],[0.365],[1],[0],[0],[2.1153595000505447],['target'],01,001,2024-10-10_11h43.45.220,Visual Search,2024.2.1post4,59.72762997644077,2024-10-10 11h43.57.971987 +0530,
43,0,43,[0.125],[0.465],[1],[0],[0],[2.361418599728495],['target'],43,0,43,0,74.89964509988204,,5,74.89115690020844,74.89964509988204,74.89964509988204,0.020962299779057503,77.2530895001255,[0.125],[0.465],[1],[0],[0],[2.361418599728495],['target'],01,001,2024-10-10_11h43.45.220,Visual Search,2024.2.1post4,59.72762997644077,2024-10-10 11h43.57.971987 +0530,
44,0,44,[-0.18166666666666667],[-0.14333333333333334],[1],[0],[0],[3.2038011001423],['target'],44,0,44,0,77.31299120001495,,10,77.29652300011367,77.31299120001495,77.31299120001495,0.04325929982587695,80.50078780017793,[-0.18166666666666667],[-0.14333333333333334],[1],[0],[0],[3.2038011001423],['target'],01,001,2024-10-10_11h43.45.220,Visual Search,2024.2.1post4,59.72762997644077,2024-10-10 11h43.57.971987 +0530,
45,0,45,[-0.25166666666666665],[0.3433333333333333],[1],[0],[0],[3.61234139977023],['target'],45,0,45,0,80.53057650011033,,10,80.52164269983768,80.53057650011033,80.53057650011033,0.020740999840199947,84.13443969981745,[-0.25166666666666665],[0.3433333333333333],[1],[0],[0],[3.61234139977023],['target'],01,001,2024-10-10_11h43.45.220,Visual Search,2024.2.1post4,59.72762997644077,2024-10-10 11h43.57.971987 +0530,
46,0,46,[-0.305],[-0.25666666666666665],[1],[0],[0],[1.6575258998200297],['target'],46,0,46,0,84.17085349978879,,10,84.15984239988029,84.17085349978879,84.17085349978879,0.02523439982905984,85.81783549999818,[-0.305],[-0.25666666666666665],[1],[0],[0],[1.6575258998200297],['target'],01,001,2024-10-10_11h43.45.220,Visual Search,2024.2.1post4,59.72762997644077,2024-10-10 11h43.57.971987 +0530,
47,0,47,[-0.03666666666666667],[-0.15666666666666668],[1],[0],[0],[2.1991782002151012],['target'],47,0,47,0,85.86930620018393,,10,85.85336600011215,85.86930620018393,85.86930620018393,0.03539970004931092,88.05306359985843,[-0.03666666666666667],[-0.15666666666666668],[1],[0],[0],[2.1991782002151012],['target'],01,001,2024-10-10_11h43.45.220,Visual Search,2024.2.1post4,59.72762997644077,2024-10-10 11h43.57.971987 +0530,
48,0,48,[0.30833333333333335],[-0.4033333333333333],[1],[0],[0],[2.7548234998248518],['target'],48,0,48,0,88.09075650013983,,10,88.08039900008589,88.09075650013983,88.09075650013983,0.027151400223374367,90.83588310005143,[0.30833333333333335],[-0.4033333333333333],[1],[0],[0],[2.7548234998248518],['target'],01,001,2024-10-10_11h43.45.220,Visual Search,2024.2.1post4,59.72762997644077,2024-10-10 11h43.57.971987 +0530,
49,0,49,[-0.27166666666666667],[0.14666666666666667],[1],[0],[0],[1.3180420999415219],['target'],49,0,49,0,90.8633564999327,,5,90.84926240006462,90.8633564999327,90.8633564999327,0.013188600074499846,92.16773089999333,[-0.27166666666666667],[0.14666666666666667],[1],[0],[0],[1.3180420999415219],['target'],01,001,2024-10-10_11h43.45.220,Visual Search,2024.2.1post4,59.72762997644077,2024-10-10 11h43.57.971987 +0530,
50,0,50,[-0.19],[-0.445],[1],[0],[0],[2.119519100058824],['target'],50,0,50,0,92.20972419995815,,10,92.19888969976455,92.20972419995815,92.20972419995815,0.031030199956148863,94.31893569976091,[-0.19],[-0.445],[1],[0],[0],[2.119519100058824],['target'],01,001,2024-10-10_11h43.45.220,Visual Search,2024.2.1post4,59.72762997644077,2024-10-10 11h43.57.971987 +0530,
51,0,51,[0.25833333333333336],[0.29333333333333333],[1],[0],[0],[2.03715300001204],['target'],51,0,51,0,94.3599192998372,,10,94.34756649984047,94.3599192998372,94.3599192998372,0.028383899945765734,96.38515690015629,[0.25833333333333336],[0.29333333333333333],[1],[0],[0],[2.03715300001204],['target'],01,001,2024-10-10_11h43.45.220,Visual Search,2024.2.1post4,59.72762997644077,2024-10-10 11h43.57.971987 +0530,
52,0,52,[-0.385],[0.12],[1],[0],[0],[1.9721100996248424],['target'],52,0,52,0,96.42482380010188,,10,96.41308220010251,96.42482380010188,96.42482380010188,0.02771619986742735,98.38566899998114,[-0.385],[0.12],[1],[0],[0],[1.9721100996248424],['target'],01,001,2024-10-10_11h43.45.220,Visual Search,2024.2.1post4,59.72762997644077,2024-10-10 11h43.57.971987 +0530,
53,0,53,[0.06666666666666667],[0.205],[1],[0],[0],[2.7813006001524627],['target'],53,0,53,0,98.4383104997687,,10,98.42013610014692,98.4383104997687,98.4383104997687,0.034223999828100204,101.20184929994866,[0.06666666666666667],[0.205],[1],[0],[0],[2.7813006001524627],['target'],01,001,2024-10-10_11h43.45.220,Visual Search,2024.2.1post4,59.72762997644077,2024-10-10 11h43.57.971987 +0530,
54,0,54,[0.4666666666666667],[0.14333333333333334],[1],[0],[0],[1.4558422998525202],['target'],54,0,54,0,101.24039060017094,,10,101.22878800006583,101.24039060017094,101.24039060017094,0.026779700070619583,102.68508259998634,[0.4666666666666667],[0.14333333333333334],[1],[0],[0],[1.4558422998525202],['target'],01,001,2024-10-10_11h43.45.220,Visual Search,2024.2.1post4,59.72762997644077,2024-10-10 11h43.57.971987 +0530,
55,0,55,[0.34],[0.09166666666666666],[1],[0],[0],[1.3040062999352813],['target'],55,0,55,0,102.72482659993693,,10,102.71346999984235,102.72482659993693,102.72482659993693,0.028179099783301353,104.01790620014071,[0.34],[0.09166666666666666],[1],[0],[0],[1.3040062999352813],['target'],01,001,2024-10-10_11h43.45.220,Visual Search,2024.2.1post4,59.72762997644077,2024-10-10 11h43.57.971987 +0530,
56,0,56,[0.02],[-0.275],[1],[0],[0],[1.870970600284636],['target'],56,0,56,0,104.05784260015935,,10,104.04647420020774,104.05784260015935,104.05784260015935,0.02835820009931922,105.91790329990909,[0.02],[-0.275],[1],[0],[0],[1.870970600284636],['target'],01,001,2024-10-10_11h43.45.220,Visual Search,2024.2.1post4,59.72762997644077,2024-10-10 11h43.57.971987 +0530,
57,0,57,[0.115],[0.34833333333333333],[1],[0],[0],[1.8843480003997684],['target'],57,0,57,0,105.94610989978537,,5,105.93361299997196,105.94610989978537,105.94610989978537,0.015555900055915117,107.818404099904,[0.115],[0.34833333333333333],[1],[0],[0],[1.8843480003997684],['target'],01,001,2024-10-10_11h43.45.220,Visual Search,2024.2.1post4,59.72762997644077,2024-10-10 11h43.57.971987 +0530,
58,0,58,[0.24666666666666667],[-0.285],[1],[0],[0],[3.3521913001313806],['target'],58,0,58,0,107.86347540002316,,10,107.84870530012995,107.86347540002316,107.86347540002316,0.030146199744194746,111.20132269989699,[0.24666666666666667],[-0.285],[1],[0],[0],[3.3521913001313806],['target'],01,001,2024-10-10_11h43.45.220,Visual Search,2024.2.1post4,59.72762997644077,2024-10-10 11h43.57.971987 +0530,
59,0,59,[-0.3],[-0.12833333333333333],[1],[0],[0],[1.7838042001239955],['target'],59,0,59,0,111.2293636999093,,5,111.21772040007636,111.2293636999093,111.2293636999093,0.016189000103622675,113.00193830020726,[-0.3],[-0.12833333333333333],[1],[0],[0],[1.7838042001239955],['target'],01,001,2024-10-10_11h43.45.220,Visual Search,2024.2.1post4,59.72762997644077,2024-10-10 11h43.57.971987 +0530,
60,0,60,[-0.23166666666666666],[-0.06166666666666667],[1],[0],[0],[1.3887388999573886],['target'],60,0,60,0,113.04383850004524,,10,113.02910869987682,113.04383850004524,113.04383850004524,0.02704389998689294,114.4183161999099,[-0.23166666666666666],[-0.06166666666666667],[1],[0],[0],[1.3887388999573886],['target'],01,001,2024-10-10_11h43.45.220,Visual Search,2024.2.1post4,59.72762997644077,2024-10-10 11h43.57.971987 +0530,
61,0,61,[-0.49833333333333335],[0.44333333333333336],[1],[0],[0],[1.7860355000011623],['target'],61,0,61,0,114.46246000006795,,10,114.44805590016767,114.46246000006795,114.46246000006795,0.029597400221973658,116.23453619983047,[-0.49833333333333335],[0.44333333333333336],[1],[0],[0],[1.7860355000011623],['target'],01,001,2024-10-10_11h43.45.220,Visual Search,2024.2.1post4,59.72762997644077,2024-10-10 11h43.57.971987 +0530,
62,0,62,[-0.04833333333333333],[-0.38333333333333336],[1],[0],[0],[2.333708199672401],['target'],62,0,62,0,116.26243880018592,,5,116.25058870017529,116.26243880018592,116.26243880018592,0.015844699926674366,118.58472449984401,[-0.04833333333333333],[-0.38333333333333336],[1],[0],[0],[2.333708199672401],['target'],01,001,2024-10-10_11h43.45.220,Visual Search,2024.2.1post4,59.72762997644077,2024-10-10 11h43.57.971987 +0530,
63,0,63,[0.295],[0.15666666666666668],[1],[0],[0],[1.968675899785012],['target'],63,0,63,0,118.62898339983076,,10,118.61545890010893,118.62898339983076,118.62898339983076,0.030573600437492132,120.58456020010635,[0.295],[0.15666666666666668],[1],[0],[0],[1.968675899785012],['target'],01,001,2024-10-10_11h43.45.220,Visual Search,2024.2.1post4,59.72762997644077,2024-10-10 11h43.57.971987 +0530,
64,0,64,[0.31833333333333336],[0.445],[1],[0],[0],[1.3681361000053585],['target'],64,0,64,0,120.61229609977454,,5,120.59942149976268,120.61229609977454,120.61229609977454,0.014653400052338839,121.96797059988603,[0.31833333333333336],[0.445],[1],[0],[0],[1.3681361000053585],['target'],01,001,2024-10-10_11h43.45.220,Visual Search,2024.2.1post4,59.72762997644077,2024-10-10 11h43.57.971987 +0530,
65,0,65,[0.195],[-0.35],[1],[0],[0],[2.185698799788952],['target'],65,0,65,0,121.9956597997807,,5,121.98217460000888,121.9956597997807,121.9956597997807,0.014075899962335825,124.16839430015534,[0.195],[-0.35],[1],[0],[0],[2.185698799788952],['target'],01,001,2024-10-10_11h43.45.220,Visual Search,2024.2.1post4,59.72762997644077,2024-10-10 11h43.57.971987 +0530,
66,0,66,[0.49],[-0.12166666666666667],[1],[0],[0],[3.7226669997908175],['target'],66,0,66,0,124.20638020010665,,10,124.19471060018986,124.20638020010665,124.20638020010665,0.026182800065726042,127.91783569986,[0.49],[-0.12166666666666667],[1],[0],[0],[3.7226669997908175],['target'],01,001,2024-10-10_11h43.45.220,Visual Search,2024.2.1post4,59.72762997644077,2024-10-10 11h43.57.971987 +0530,
67,0,67,[0.12],[-0.4666666666666667],[1],[0],[0],[2.1312565999105573],['target'],67,0,67,0,127.95672489982098,,10,127.94532800000161,127.95672489982098,127.95672489982098,0.027286400087177753,130.0775985000655,[0.12],[-0.4666666666666667],[1],[0],[0],[2.1312565999105573],['target'],01,001,2024-10-10_11h43.45.220,Visual Search,2024.2.1post4,59.72762997644077,2024-10-10 11h43.57.971987 +0530,
68,0,68,[0.24833333333333332],[-0.09166666666666666],[1],[0],[0],[2.06979149999097],['target'],68,0,68,0,130.16529239993542,,10,130.13444270007312,130.16529239993542,130.16529239993542,0.056540700141340494,132.204989799764,[0.24833333333333332],[-0.09166666666666666],[1],[0],[0],[2.06979149999097],['target'],01,001,2024-10-10_11h43.45.220,Visual Search,2024.2.1post4,59.72762997644077,2024-10-10 11h43.57.971987 +0530,
69,0,69,[-0.0033333333333333335],[-0.4033333333333333],[1],[0],[0],[1.519069000147283],['target'],69,0,69,0,132.26799640012905,,10,132.24974620016292,132.26799640012905,132.26799640012905,0.04446540027856827,133.7694367999211,[-0.0033333333333333335],[-0.4033333333333333],[1],[0],[0],[1.519069000147283],['target'],01,001,2024-10-10_11h43.45.220,Visual Search,2024.2.1post4,59.72762997644077,2024-10-10 11h43.57.971987 +0530,
70,0,70,[-0.15833333333333333],[-0.3233333333333333],[1],[0],[0],[1.4837394002825022],['target'],70,0,70,0,133.8366521000862,,10,133.819765499793,133.8366521000862,133.8366521000862,0.050035899970680475,135.30420670006424,[-0.15833333333333333],[-0.3233333333333333],[1],[0],[0],[1.4837394002825022],['target'],01,001,2024-10-10_11h43.45.220,Visual Search,2024.2.1post4,59.72762997644077,2024-10-10 11h43.57.971987 +0530,
71,0,71,[-0.21666666666666667],[-0.37166666666666665],[1],[0],[0],[2.3209681999869645],['target'],71,0,71,0,135.36290419986472,,10,135.34722980018705,135.36290419986472,135.36290419986472,0.04274980025365949,137.66859090002254,[-0.21666666666666667],[-0.37166666666666665],[1],[0],[0],[2.3209681999869645],['target'],01,001,2024-10-10_11h43.45.220,Visual Search,2024.2.1post4,59.72762997644077,2024-10-10 11h43.57.971987 +0530,
72,0,72,[0.27666666666666667],[0.315],[1],[0],[0],[2.2050561998039484],['target'],72,0,72,0,137.7075335998088,,10,137.69618770014495,137.7075335998088,137.7075335998088,0.02745659975335002,139.90172060020268,[0.27666666666666667],[0.315],[1],[0],[0],[2.2050561998039484],['target'],01,001,2024-10-10_11h43.45.220,Visual Search,2024.2.1post4,59.72762997644077,2024-10-10 11h43.57.971987 +0530,
73,0,73,[-0.15666666666666668],[0.26666666666666666],[1],[0],[0],[1.9999027997255325],['target'],73,0,73,0,139.9488276997581,,10,139.93350479984656,139.9488276997581,139.9488276997581,0.031568200327456,141.9338448997587,[-0.15666666666666668],[0.26666666666666666],[1],[0],[0],[1.9999027997255325],['target'],01,001,2024-10-10_11h43.45.220,Visual Search,2024.2.1post4,59.72762997644077,2024-10-10 11h43.57.971987 +0530,
74,0,74,[0.22833333333333333],[0.10333333333333333],[1],[0],[0],[1.7663585999980569],['target'],74,0,74,0,141.96278110006824,,5,141.95163880009204,141.96278110006824,141.96278110006824,0.017644000239670277,143.71849629981443,[0.22833333333333333],[0.10333333333333333],[1],[0],[0],[1.7663585999980569],['target'],01,001,2024-10-10_11h43.45.220,Visual Search,2024.2.1post4,59.72762997644077,2024-10-10 11h43.57.971987 +0530,
75,0,75,[0.11],[-0.08166666666666667],[1],[0],[0],[2.31384290009737],['target'],75,0,75,0,143.7693706001155,,10,143.75446530012414,143.7693706001155,143.7693706001155,0.03575920034199953,146.06878639990464,[0.11],[-0.08166666666666667],[1],[0],[0],[2.31384290009737],['target'],01,001,2024-10-10_11h43.45.220,Visual Search,2024.2.1post4,59.72762997644077,2024-10-10 11h43.57.971987 +0530,
76,0,76,[-0.41833333333333333],[-0.15666666666666668],[1],[0],[0],[1.9584320997819304],['target'],76,0,76,0,146.1245900997892,,10,146.10765910008922,146.1245900997892,146.1245900997892,0.03862310014665127,148.06650990014896,[-0.41833333333333333],[-0.15666666666666668],[1],[0],[0],[1.9584320997819304],['target'],01,001,2024-10-10_11h43.45.220,Visual Search,2024.2.1post4,59.72762997644077,2024-10-10 11h43.57.971987 +0530,
77,0,77,[-0.041666666666666664],[-0.2833333333333333],[1],[0],[0],[2.025809300132096],['target'],77,0,77,0,148.1017470001243,,10,148.0904061999172,148.1017470001243,148.1017470001243,0.023703299928456545,150.11658440018073,[-0.041666666666666664],[-0.2833333333333333],[1],[0],[0],[2.025809300132096],['target'],01,001,2024-10-10_11h43.45.220,Visual Search,2024.2.1post4,59.72762997644077,2024-10-10 11h43.57.971987 +0530,
78,0,78,[0.31833333333333336],[0.2866666666666667],[1],[0],[0],[2.674109799787402],['target'],78,0,78,0,150.15435130009428,,10,150.1429352001287,150.15435130009428,150.15435130009428,0.02610500017181039,152.8174335998483,[0.31833333333333336],[0.2866666666666667],[1],[0],[0],[2.674109799787402],['target'],01,001,2024-10-10_11h43.45.220,Visual Search,2024.2.1post4,59.72762997644077,2024-10-10 11h43.57.971987 +0530,
79,0,79,[-0.17],[-0.095],[1],[0],[0],[1.5570748997852206],['target'],79,0,79,0,152.85263630002737,,10,152.84293049992993,152.85263630002737,152.85263630002737,0.025388000067323446,154.40040040016174,[-0.17],[-0.095],[1],[0],[0],[1.5570748997852206],['target'],01,001,2024-10-10_11h43.45.220,Visual Search,2024.2.1post4,59.72762997644077,2024-10-10 11h43.57.971987 +0530,
80,0,80,[-0.02],[-0.19666666666666666],[1],[0],[0],[1.3707126001827419],['target'],80,0,80,0,154.42917780019343,,5,154.41230850014836,154.42917780019343,154.42917780019343,0.011780199594795704,155.7834148001857,[-0.02],[-0.19666666666666666],[1],[0],[0],[1.3707126001827419],['target'],01,001,2024-10-10_11h43.45.220,Visual Search,2024.2.1post4,59.72762997644077,2024-10-10 11h43.57.971987 +0530,
81,0,81,[0.12666666666666668],[0.20833333333333334],[1],[0],[0],[2.6392262000590563],['target'],81,0,81,0,155.82327969977632,,10,155.81157970009372,155.82327969977632,155.82327969977632,0.028053400106728077,158.45129559980705,[0.12666666666666668],[0.20833333333333334],[1],[0],[0],[2.6392262000590563],['target'],01,001,2024-10-10_11h43.45.220,Visual Search,2024.2.1post4,59.72762997644077,2024-10-10 11h43.57.971987 +0530,
82,0,82,[0.3516666666666667],[0.008333333333333333],[1],[0],[0],[1.9477850999683142],['target'],82,0,82,0,158.47856999980286,,5,158.46850119996816,158.47856999980286,158.47856999980286,0.017017100006341934,160.41680110013112,[0.3516666666666667],[0.008333333333333333],[1],[0],[0],[1.9477850999683142],['target'],01,001,2024-10-10_11h43.45.220,Visual Search,2024.2.1post4,59.72762997644077,2024-10-10 11h43.57.971987 +0530,
83,0,83,[-0.043333333333333335],[-0.085],[1],[0],[0],[1.4546254999004304],['target'],83,0,83,0,160.44528609979898,,5,160.42895619990304,160.44528609979898,160.44528609979898,0.011981500312685966,161.88403719989583,[-0.043333333333333335],[-0.085],[1],[0],[0],[1.4546254999004304],['target'],01,001,2024-10-10_11h43.45.220,Visual Search,2024.2.1post4,59.72762997644077,2024-10-10 11h43.57.971987 +0530,
84,0,84,[-0.065],[-0.35333333333333333],[1],[0],[0],[2.1544373999349773],['target'],84,0,84,0,161.91219490021467,,5,161.89498410001397,161.91219490021467,161.91219490021467,0.01084390003234148,164.049817699939,[-0.065],[-0.35333333333333333],[1],[0],[0],[2.1544373999349773],['target'],01,001,2024-10-10_11h43.45.220,Visual Search,2024.2.1post4,59.72762997644077,2024-10-10 11h43.57.971987 +0530,
85,0,85,[0.09333333333333334],[0.23],[1],[0],[0],[1.9855439998209476],['target'],85,0,85,0,164.07888899976388,,5,164.06406089989468,164.07888899976388,164.07888899976388,0.014119100291281939,166.05001669982448,[0.09333333333333334],[0.23],[1],[0],[0],[1.9855439998209476],['target'],01,001,2024-10-10_11h43.45.220,Visual Search,2024.2.1post4,59.72762997644077,2024-10-10 11h43.57.971987 +0530,
86,0,86,[0.4716666666666667],[-0.23166666666666666],[1],[0],[0],[1.8383047999814153],['target'],86,0,86,0,166.07861179998145,,5,166.06292730011046,166.07861179998145,166.07861179998145,0.012771000154316425,167.90163630014285,[0.4716666666666667],[-0.23166666666666666],[1],[0],[0],[1.8383047999814153],['target'],01,001,2024-10-10_11h43.45.220,Visual Search,2024.2.1post4,59.72762997644077,2024-10-10 11h43.57.971987 +0530,
87,0,87,[0.4116666666666667],[0.16166666666666665],[1],[0],[0],[1.9005195000208914],['target'],87,0,87,0,167.9283298999071,,5,167.91514080017805,167.9283298999071,167.9283298999071,0.013406500220298767,169.81601129984483,[0.4116666666666667],[0.16166666666666665],[1],[0],[0],[1.9005195000208914],['target'],01,001,2024-10-10_11h43.45.220,Visual Search,2024.2.1post4,59.72762997644077,2024-10-10 11h43.57.971987 +0530,
88,0,88,[0.04666666666666667],[-0.3516666666666667],[1],[0],[0],[2.545506600290537],['target'],88,0,88,0,169.86197069985792,,10,169.83719460014254,169.86197069985792,169.86197069985792,0.021086399909108877,172.38307269988582,[0.04666666666666667],[-0.3516666666666667],[1],[0],[0],[2.545506600290537],['target'],01,001,2024-10-10_11h43.45.220,Visual Search,2024.2.1post4,59.72762997644077,2024-10-10 11h43.57.971987 +0530,
89,0,89,[-0.24833333333333332],[0.45166666666666666],[1],[0],[0],[1.9182289997115731],['target'],89,0,89,0,172.41186759993434,,5,172.39826649986207,172.41186759993434,172.41186759993434,0.01506950007751584,174.31690170010552,[-0.24833333333333332],[0.45166666666666666],[1],[0],[0],[1.9182289997115731],['target'],01,001,2024-10-10_11h43.45.220,Visual Search,2024.2.1post4,59.72762997644077,2024-10-10 11h43.57.971987 +0530,
90,0,90,[-0.15666666666666668],[-0.15],[1],[0],[0],[1.856733400374651],['target'],90,0,90,0,174.34501239983365,,5,174.3271523998119,174.34501239983365,174.34501239983365,0.010117100086063147,176.1843646997586,[-0.15666666666666668],[-0.15],[1],[0],[0],[1.856733400374651],['target'],01,001,2024-10-10_11h43.45.220,Visual Search,2024.2.1post4,59.72762997644077,2024-10-10 11h43.57.971987 +0530,
91,0,91,[0.30833333333333335],[-0.285],[1],[0],[0],[2.7107885000295937],['target'],91,0,91,0,176.24669069983065,,10,176.22326940018684,176.24669069983065,176.24669069983065,0.03873889986425638,178.93463250016794,[0.30833333333333335],[-0.285],[1],[0],[0],[2.7107885000295937],['target'],01,001,2024-10-10_11h43.45.220,Visual Search,2024.2.1post4,59.72762997644077,2024-10-10 11h43.57.971987 +0530,
92,0,92,[0.025],[-0.125],[1],[0],[0],[2.3158420003019273],['target'],92,0,92,0,178.9615544998087,,5,178.9518829002045,178.9615544998087,178.9615544998087,0.017066500149667263,181.26823370018974,[0.025],[-0.125],[1],[0],[0],[2.3158420003019273],['target'],01,001,2024-10-10_11h43.45.220,Visual Search,2024.2.1post4,59.72762997644077,2024-10-10 11h43.57.971987 +0530,
93,0,93,[0.38],[0.42833333333333334],[1],[0],[0],[1.8662136001512408],['target'],93,0,93,0,181.29456500010565,,5,181.28224630001932,181.29456500010565,181.29456500010565,0.013832599855959415,183.1489364998415,[0.38],[0.42833333333333334],[1],[0],[0],[1.8662136001512408],['target'],01,001,2024-10-10_11h43.45.220,Visual Search,2024.2.1post4,59.72762997644077,2024-10-10 11h43.57.971987 +0530,
94,0,94,[0.29333333333333333],[-0.11333333333333333],[1],[0],[0],[1.7532311999239028],['target'],94,0,94,0,183.17784440005198,,5,183.1639808001928,183.17784440005198,183.17784440005198,0.014534599613398314,184.91762399999425,[0.29333333333333333],[-0.11333333333333333],[1],[0],[0],[1.7532311999239028],['target'],01,001,2024-10-10_11h43.45.220,Visual Search,2024.2.1post4,59.72762997644077,2024-10-10 11h43.57.971987 +0530,
95,0,95,[0.45166666666666666],[0.4083333333333333],[1],[0],[0],[2.3723290003836155],['target'],95,0,95,0,184.95316440006718,,10,184.94320529978722,184.95316440006718,184.95316440006718,0.025447200052440166,187.31608729995787,[0.45166666666666666],[0.4083333333333333],[1],[0],[0],[2.3723290003836155],['target'],01,001,2024-10-10_11h43.45.220,Visual Search,2024.2.1post4,59.72762997644077,2024-10-10 11h43.57.971987 +0530,
96,0,96,[-0.0016666666666666668],[0.31],[1],[0],[0],[2.55507929995656],['target'],96,0,96,0,187.34474080009386,,5,187.32659059995785,187.34474080009386,187.34474080009386,0.010383300017565489,189.88202679995447,[-0.0016666666666666668],[0.31],[1],[0],[0],[2.55507929995656],['target'],01,001,2024-10-10_11h43.45.220,Visual Search,2024.2.1post4,59.72762997644077,2024-10-10 11h43.57.971987 +0530,
97,0,97,[0.35],[0.27],[1],[0],[0],[2.840724099893123],['target'],97,0,97,0,189.91921890014783,,10,189.90778120001778,189.91921890014783,189.91921890014783,0.025650300085544586,192.74892169982195,[0.35],[0.27],[1],[0],[0],[2.840724099893123],['target'],01,001,2024-10-10_11h43.45.220,Visual Search,2024.2.1post4,59.72762997644077,2024-10-10 11h43.57.971987 +0530,
98,0,98,[-0.36],[0.12666666666666668],[1],[0],[0],[1.607112199999392],['target'],98,0,98,0,192.77759069995955,,5,192.75903850002214,192.77759069995955,192.77759069995955,0.009982000105082989,194.3665431002155,[-0.36],[0.12666666666666668],[1],[0],[0],[1.607112199999392],['target'],01,001,2024-10-10_11h43.45.220,Visual Search,2024.2.1post4,59.72762997644077,2024-10-10 11h43.57.971987 +0530,
99,0,99,[-0.30666666666666664],[-0.11833333333333333],[1],[0],[0],[1.620259199757129],['target'],99,0,99,0,194.39457170013338,,5,194.377932399977,194.39457170013338,194.39457170013338,0.011262699961662292,195.99857079982758,[-0.30666666666666664],[-0.11833333333333333],[1],[0],[0],[1.620259199757129],['target'],01,001,2024-10-10_11h43.45.220,Visual Search,2024.2.1post4,59.72762997644077,2024-10-10 11h43.57.971987 +0530,
100,0,100,[0.335],[-0.14],[1],[0],[0],[1.6704238001257181],['target'],100,0,100,0,196.02781389979646,,5,196.01208569994196,196.02781389979646,196.02781389979646,0.013379599899053574,197.68287080014125,[0.335],[-0.14],[1],[0],[0],[1.6704238001257181],['target'],01,001,2024-10-10_11h43.45.220,Visual Search,2024.2.1post4,59.72762997644077,2024-10-10 11h43.57.971987 +0530,
101,0,101,[0.465],[-0.195],[1],[0],[0],[1.8511087000370026],['target'],101,0,101,0,197.71113430010155,,5,197.69685850013047,197.71113430010155,197.71113430010155,0.013882500119507313,199.5482764998451,[0.465],[-0.195],[1],[0],[0],[1.8511087000370026],['target'],01,001,2024-10-10_11h43.45.220,Visual Search,2024.2.1post4,59.72762997644077,2024-10-10 11h43.57.971987 +0530,
102,0,102,[-0.36833333333333335],[0.43666666666666665],[1],[0],[0],[2.947657299693674],['target'],102,0,102,0,199.57920579984784,,10,199.56867149984464,199.57920579984784,199.57920579984784,0.020300500094890594,202.5167557997629,[-0.36833333333333335],[0.43666666666666665],[1],[0],[0],[2.947657299693674],['target'],01,001,2024-10-10_11h43.45.220,Visual Search,2024.2.1post4,59.72762997644077,2024-10-10 11h43.57.971987 +0530,
103,0,103,[-0.4583333333333333],[-0.36333333333333334],[1],[0],[0],[2.588922300375998],['target'],103,0,103,0,202.55804000003263,,10,202.54425359982997,202.55804000003263,202.55804000003263,0.027340800035744905,205.13364499993622,[-0.4583333333333333],[-0.36333333333333334],[1],[0],[0],[2.588922300375998],['target'],01,001,2024-10-10_11h43.45.220,Visual Search,2024.2.1post4,59.72762997644077,2024-10-10 11h43.57.971987 +0530,
104,0,104,[-0.065],[-0.435],[1],[0],[0],[4.037019700277597],['target'],104,0,104,0,205.17425470007583,,10,205.16233540000394,205.17425470007583,205.17425470007583,0.028533299919217825,209.19979219976813,[-0.065],[-0.435],[1],[0],[0],[4.037019700277597],['target'],01,001,2024-10-10_11h43.45.220,Visual Search,2024.2.1post4,59.72762997644077,2024-10-10 11h43.57.971987 +0530,
105,0,105,[-0.47833333333333333],[0.37833333333333335],[1],[0],[0],[3.2897414001636207],['target'],105,0,105,0,209.23867669980973,,10,209.2271595997736,209.23867669980973,209.23867669980973,0.027207599952816963,212.51733759976923,[-0.47833333333333333],[0.37833333333333335],[1],[0],[0],[3.2897414001636207],['target'],01,001,2024-10-10_11h43.45.220,Visual Search,2024.2.1post4,59.72762997644077,2024-10-10 11h43.57.971987 +0530,
106,0,106,[-0.34833333333333333],[-0.11333333333333333],[1],[0],[0],[1.90005710022524],['target'],106,0,106,0,212.54424910014495,,5,212.53222690010443,212.54424910014495,212.54424910014495,0.014732900075614452,214.4326940998435,[-0.34833333333333333],[-0.11333333333333333],[1],[0],[0],[1.90005710022524],['target'],01,001,2024-10-10_11h43.45.220,Visual Search,2024.2.1post4,59.72762997644077,2024-10-10 11h43.57.971987 +0530,
107,0,107,[-0.19666666666666666],[-0.44333333333333336],[1],[0],[0],[3.136569899972528],['target'],107,0,107,0,214.47471019998193,,10,214.46254580002278,214.47471019998193,214.47471019998193,0.02972140023484826,217.5995992999524,[-0.19666666666666666],[-0.44333333333333336],[1],[0],[0],[3.136569899972528],['target'],01,001,2024-10-10_11h43.45.220,Visual Search,2024.2.1post4,59.72762997644077,2024-10-10 11h43.57.971987 +0530,
108,0,108,[0.31666666666666665],[0.09833333333333333],[1],[0],[0],[2.6063509001396596],['target'],108,0,108,0,217.63860430009663,,10,217.62667720019817,217.63860430009663,217.63860430009663,0.0269102999009192,220.2334912000224,[0.31666666666666665],[0.09833333333333333],[1],[0],[0],[2.6063509001396596],['target'],01,001,2024-10-10_11h43.45.220,Visual Search,2024.2.1post4,59.72762997644077,2024-10-10 11h43.57.971987 +0530,
109,0,109,[0.45166666666666666],[-0.028333333333333332],[1],[0],[0],[2.0646367999725044],['target'],109,0,109,0,220.26184630021453,,5,220.25203369976953,220.26184630021453,220.26184630021453,0.01830240013077855,222.31717369984835,[0.45166666666666666],[-0.028333333333333332],[1],[0],[0],[2.0646367999725044],['target'],01,001,2024-10-10_11h43.45.220,Visual Search,2024.2.1post4,59.72762997644077,2024-10-10 11h43.57.971987 +0530,
110,0,110,[0.16333333333333333],[-0.3433333333333333],[1],[0],[0],[2.5715370001271367],['target'],110,0,110,0,222.35598949994892,,10,222.3442481001839,222.35598949994892,222.35598949994892,0.02684530010446906,224.91620279988274,[0.16333333333333333],[-0.3433333333333333],[1],[0],[0],[2.5715370001271367],['target'],01,001,2024-10-10_11h43.45.220,Visual Search,2024.2.1post4,59.72762997644077,2024-10-10 11h43.57.971987 +0530,
111,0,111,[0.23666666666666666],[-0.4533333333333333],[1],[0],[0],[2.568198900204152],['target'],111,0,111,0,224.94390100007877,,5,224.93208579998463,224.94390100007877,224.94390100007877,0.015668199863284826,227.50086139980704,[0.23666666666666666],[-0.4533333333333333],[1],[0],[0],[2.568198900204152],['target'],01,001,2024-10-10_11h43.45.220,Visual Search,2024.2.1post4,59.72762997644077,2024-10-10 11h43.57.971987 +0530,
112,0,112,[-0.08333333333333333],[-0.25166666666666665],[1],[0],[0],[1.8473489000461996],['target'],112,0,112,0,227.54802739992738,,10,227.53534229984507,227.54802739992738,227.54802739992738,0.034238799940794706,229.3831267999485,[-0.08333333333333333],[-0.25166666666666665],[1],[0],[0],[1.8473489000461996],['target'],01,001,2024-10-10_11h43.45.220,Visual Search,2024.2.1post4,59.72762997644077,2024-10-10 11h43.57.971987 +0530,
113,0,113,[-0.30833333333333335],[0.46166666666666667],[1],[0],[0],[2.268493600189686],['target'],113,0,113,0,229.41053499979898,,5,229.3970806999132,229.41053499979898,229.41053499979898,0.01379980007186532,231.66597930015996,[-0.30833333333333335],[0.46166666666666667],[1],[0],[0],[2.268493600189686],['target'],01,001,2024-10-10_11h43.45.220,Visual Search,2024.2.1post4,59.72762997644077,2024-10-10 11h43.57.971987 +0530,
114,0,114,[0.21333333333333335],[-0.18166666666666667],[1],[0],[0],[3.2394924997352064],['target'],114,0,114,0,231.70480890013278,,10,231.6933891000226,231.70480890013278,231.70480890013278,0.02728229993954301,234.93332660011947,[0.21333333333333335],[-0.18166666666666667],[1],[0],[0],[3.2394924997352064],['target'],01,001,2024-10-10_11h43.45.220,Visual Search,2024.2.1post4,59.72762997644077,2024-10-10 11h43.57.971987 +0530,
115,0,115,[0.435],[0.16666666666666666],[1],[0],[0],[2.2996743000112474],['target'],115,0,115,0,234.960445899982,,5,234.94968309998512,234.960445899982,234.960445899982,0.01614700024947524,237.24978110007942,[0.435],[0.16666666666666666],[1],[0],[0],[2.2996743000112474],['target'],01,001,2024-10-10_11h43.45.220,Visual Search,2024.2.1post4,59.72762997644077,2024-10-10 11h43.57.971987 +0530,
116,0,116,[0.08666666666666667],[0.04],[1],[0],[0],[2.588492800015956],['target'],116,0,116,0,237.2894894001074,,10,237.27764240000397,237.2894894001074,237.2894894001074,0.027700299862772226,239.8665646999143,[0.08666666666666667],[0.04],[1],[0],[0],[2.588492800015956],['target'],01,001,2024-10-10_11h43.45.220,Visual Search,2024.2.1post4,59.72762997644077,2024-10-10 11h43.57.971987 +0530,
117,0,117,[0.47333333333333333],[-0.08333333333333333],[1],[0],[0],[2.155379599891603],['target'],117,0,117,0,239.90764210000634,,10,239.89365480002016,239.90764210000634,239.90764210000634,0.026931799948215485,242.04944969993085,[0.47333333333333333],[-0.08333333333333333],[1],[0],[0],[2.155379599891603],['target'],01,001,2024-10-10_11h43.45.220,Visual Search,2024.2.1post4,59.72762997644077,2024-10-10 11h43.57.971987 +0530,
118,0,118,[-0.27166666666666667],[-0.385],[1],[0],[0],[2.697368999943137],['target'],118,0,118,0,242.09961970010772,,10,242.08537469990551,242.09961970010772,242.09961970010772,0.03577749989926815,244.78318049991503,[-0.27166666666666667],[-0.385],[1],[0],[0],[2.697368999943137],['target'],01,001,2024-10-10_11h43.45.220,Visual Search,2024.2.1post4,59.72762997644077,2024-10-10 11h43.57.971987 +0530,
119,0,119,[0.38333333333333336],[0.023333333333333334],[1],[0],[0],[1.8351030997000635],['target'],119,0,119,0,244.81069660000503,,5,244.79721709992737,244.81069660000503,244.81069660000503,0.013882100116461515,246.63274479983374,[0.38333333333333336],[0.023333333333333334],[1],[0],[0],[1.8351030997000635],['target'],01,001,2024-10-10_11h43.45.220,Visual Search,2024.2.1post4,59.72762997644077,2024-10-10 11h43.57.971987 +0530,
120,0,120,[-0.31833333333333336],[-0.3883333333333333],[1],[0],[0],[2.4863936002366245],['target'],120,0,120,0,246.6770970998332,,10,246.66282849991694,246.6770970998332,246.6770970998332,0.029926099814474583,249.1496541001834,[-0.31833333333333336],[-0.3883333333333333],[1],[0],[0],[2.4863936002366245],['target'],01,001,2024-10-10_11h43.45.220,Visual Search,2024.2.1post4,59.72762997644077,2024-10-10 11h43.57.971987 +0530,
121,0,121,[-0.36333333333333334],[0.18],[1],[0],[0],[1.8529059998691082],['target'],121,0,121,0,249.1902128001675,,10,249.17891849996522,249.1902128001675,249.1902128001675,0.029066000133752823,251.0323311998509,[-0.36333333333333334],[0.18],[1],[0],[0],[1.8529059998691082],['target'],01,001,2024-10-10_11h43.45.220,Visual Search,2024.2.1post4,59.72762997644077,2024-10-10 11h43.57.971987 +0530,
122,0,122,[0.2783333333333333],[-0.22],[1],[0],[0],[2.036408199928701],['target'],122,0,122,0,251.07666830020025,,10,251.06391130015254,251.07666830020025,251.07666830020025,0.03135689999908209,253.10072589991614,[0.2783333333333333],[-0.22],[1],[0],[0],[2.036408199928701],['target'],01,001,2024-10-10_11h43.45.220,Visual Search,2024.2.1post4,59.72762997644077,2024-10-10 11h43.57.971987 +0530,
123,0,123,[0.07],[0.43333333333333335],[1],[0],[0],[2.7664033002220094],['target'],123,0,123,0,253.1272049001418,,5,253.11601840006188,253.1272049001418,253.1272049001418,0.015138300135731697,255.88284249976277,[0.07],[0.43333333333333335],[1],[0],[0],[2.7664033002220094],['target'],01,001,2024-10-10_11h43.45.220,Visual Search,2024.2.1post4,59.72762997644077,2024-10-10 11h43.57.971987 +0530,
124,0,124,[-0.011666666666666667],[-0.058333333333333334],[1],[0],[0],[3.1339999004267156],['target'],124,0,124,0,255.91026660008356,,5,255.89761980017647,255.91026660008356,255.91026660008356,0.014614899642765522,259.03201569989324,[-0.011666666666666667],[-0.058333333333333334],[1],[0],[0],[3.1339999004267156],['target'],01,001,2024-10-10_11h43.45.220,Visual Search,2024.2.1post4,59.72762997644077,2024-10-10 11h43.57.971987 +0530,
125,0,125,[0.27666666666666667],[-0.105],[1],[0],[0],[1.3193991999141872],['target'],125,0,125,0,259.06019510002807,,5,259.04599240003154,259.06019510002807,259.06019510002807,0.013847599737346172,260.3658238998614,[0.27666666666666667],[-0.105],[1],[0],[0],[1.3193991999141872],['target'],01,001,2024-10-10_11h43.45.220,Visual Search,2024.2.1post4,59.72762997644077,2024-10-10 11h43.57.971987 +0530,
126,0,126,[0.24666666666666667],[-0.41333333333333333],[1],[0],[0],[4.204601699952036],['target'],126,0,126,0,260.40583750000224,,10,260.39443709980696,260.40583750000224,260.40583750000224,0.028451899997889996,264.5994473998435,[0.24666666666666667],[-0.41333333333333333],[1],[0],[0],[4.204601699952036],['target'],01,001,2024-10-10_11h43.45.220,Visual Search,2024.2.1post4,59.72762997644077,2024-10-10 11h43.57.971987 +0530,
127,0,127,[0.48833333333333334],[0.175],[1],[0],[0],[2.0823278999887407],['target'],127,0,127,0,264.6267377999611,,5,264.61718729976565,264.6267377999611,264.6267377999611,0.017543899826705456,266.6999347000383,[0.48833333333333334],[0.175],[1],[0],[0],[2.0823278999887407],['target'],01,001,2024-10-10_11h43.45.220,Visual Search,2024.2.1post4,59.72762997644077,2024-10-10 11h43.57.971987 +0530,
128,0,128,[-0.43333333333333335],[0.12833333333333333],[1],[0],[0],[2.7494802000001073],['target'],128,0,128,0,266.72674239985645,,5,266.71607899991795,266.72674239985645,266.72674239985645,0.01597790000960231,269.46602859999985,[-0.43333333333333335],[0.12833333333333333],[1],[0],[0],[2.7494802000001073],['target'],01,001,2024-10-10_11h43.45.220,Visual Search,2024.2.1post4,59.72762997644077,2024-10-10 11h43.57.971987 +0530,
129,0,129,[-0.445],[-0.35],[1],[0],[0],[1.7668173997662961],['target'],129,0,129,0,269.4935658001341,,5,269.4810866001062,269.4935658001341,269.4935658001341,0.014937799889594316,271.24831710010767,[-0.445],[-0.35],[1],[0],[0],[1.7668173997662961],['target'],01,001,2024-10-10_11h43.45.220,Visual Search,2024.2.1post4,59.72762997644077,2024-10-10 11h43.57.971987 +0530,
130,0,130,[-0.006666666666666667],[-0.22666666666666666],[1],[0],[0],[1.786612699739635],['target'],130,0,130,0,271.2937432001345,,10,271.2781878001988,271.2937432001345,271.2937432001345,0.029699199832975864,273.06524079991505,[-0.006666666666666667],[-0.22666666666666666],[1],[0],[0],[1.786612699739635],['target'],01,001,2024-10-10_11h43.45.220,Visual Search,2024.2.1post4,59.72762997644077,2024-10-10 11h43.57.971987 +0530,
131,0,131,[0.008333333333333333],[-0.115],[1],[0],[0],[1.7736432999372482],['target'],131,0,131,0,273.1050064000301,,10,273.09310820000246,273.1050064000301,273.1050064000301,0.02771789999678731,274.8671999000944,[0.008333333333333333],[-0.115],[1],[0],[0],[1.7736432999372482],['target'],01,001,2024-10-10_11h43.45.220,Visual Search,2024.2.1post4,59.72762997644077,2024-10-10 11h43.57.971987 +0530,
132,0,132,[-0.15666666666666668],[-0.41333333333333333],[1],[0],[0],[1.949177199974656],['target'],132,0,132,0,274.9119841000065,,10,274.89979750011116,274.9119841000065,274.9119841000065,0.03244969993829727,276.84944179980084,[-0.15666666666666668],[-0.41333333333333333],[1],[0],[0],[1.949177199974656],['target'],01,001,2024-10-10_11h43.45.220,Visual Search,2024.2.1post4,59.72762997644077,2024-10-10 11h43.57.971987 +0530,
133,0,133,[0.225],[0.2816666666666667],[1],[0],[0],[1.616607100237161],['target'],133,0,133,0,276.8763998998329,,5,276.8655980997719,276.8763998998329,276.8763998998329,0.01595079991966486,278.48272259999067,[0.225],[0.2816666666666667],[1],[0],[0],[1.616607100237161],['target'],01,001,2024-10-10_11h43.45.220,Visual Search,2024.2.1post4,59.72762997644077,2024-10-10 11h43.57.971987 +0530,
134,0,134,[0.125],[0.215],[1],[0],[0],[1.8380208001472056],['target'],134,0,134,0,278.52174300001934,,10,278.5100122001022,278.52174300001934,278.52174300001934,0.027120700106024742,280.3485047998838,[0.125],[0.215],[1],[0],[0],[1.8380208001472056],['target'],01,001,2024-10-10_11h43.45.220,Visual Search,2024.2.1post4,59.72762997644077,2024-10-10 11h43.57.971987 +0530,
135,0,135,[-0.3416666666666667],[-0.15833333333333333],[1],[0],[0],[1.8053157003596425],['target'],135,0,135,0,280.3873848998919,,10,280.3761224001646,280.3873848998919,280.3873848998919,0.027386299800127745,282.1818761001341,[-0.3416666666666667],[-0.15833333333333333],[1],[0],[0],[1.8053157003596425],['target'],01,001,2024-10-10_11h43.45.220,Visual Search,2024.2.1post4,59.72762997644077,2024-10-10 11h43.57.971987 +0530,
136,0,136,[-0.155],[-0.28833333333333333],[1],[0],[0],[1.7206830000504851],['target'],136,0,136,0,282.2246332000941,,10,282.21128719998524,282.2246332000941,282.2246332000941,0.02918260032311082,283.9324484001845,[-0.155],[-0.28833333333333333],[1],[0],[0],[1.7206830000504851],['target'],01,001,2024-10-10_11h43.45.220,Visual Search,2024.2.1post4,59.72762997644077,2024-10-10 11h43.57.971987 +0530,
137,0,137,[-0.03666666666666667],[0.043333333333333335],[1],[0],[0],[4.854644400067627],['target'],137,0,137,0,283.97479380015284,,10,283.9606845998205,283.97479380015284,283.97479380015284,0.028078599832952023,288.8157838000916,[-0.03666666666666667],[0.043333333333333335],[1],[0],[0],[4.854644400067627],['target'],01,001,2024-10-10_11h43.45.220,Visual Search,2024.2.1post4,59.72762997644077,2024-10-10 11h43.57.971987 +0530,
138,0,138,[0.27666666666666667],[-0.2733333333333333],[1],[0],[0],[1.7853983999229968],['target'],138,0,138,0,288.84328990010545,,5,288.83006069995463,288.84328990010545,288.84328990010545,0.014123199973255396,290.61587919993326,[0.27666666666666667],[-0.2733333333333333],[1],[0],[0],[1.7853983999229968],['target'],01,001,2024-10-10_11h43.45.220,Visual Search,2024.2.1post4,59.72762997644077,2024-10-10 11h43.57.971987 +0530,
139,0,139,[-0.15333333333333332],[0.01],[1],[0],[0],[1.9305468001402915],['target'],139,0,139,0,290.66660800017416,,10,290.6516701001674,290.66660800017416,290.66660800017416,0.035681100096553564,292.5826388001442,[-0.15333333333333332],[0.01],[1],[0],[0],[1.9305468001402915],['target'],01,001,2024-10-10_11h43.45.220,Visual Search,2024.2.1post4,59.72762997644077,2024-10-10 11h43.57.971987 +0530,
140,0,140,[0.48833333333333334],[0.3233333333333333],[1],[0],[0],[2.231540000066161],['target'],140,0,140,0,292.6095587001182,,5,292.6002205000259,292.6095587001182,292.6095587001182,0.01733690034598112,294.8321878002025,[0.48833333333333334],[0.3233333333333333],[1],[0],[0],[2.231540000066161],['target'],01,001,2024-10-10_11h43.45.220,Visual Search,2024.2.1post4,59.72762997644077,2024-10-10 11h43.57.971987 +0530,
141,0,141,[0.21666666666666667],[0.12166666666666667],[1],[0],[0],[1.9703629002906382],['target'],141,0,141,0,294.87353520002216,,10,294.8618438998237,294.87353520002216,294.87353520002216,0.029463899787515402,296.8325848001987,[0.21666666666666667],[0.12166666666666667],[1],[0],[0],[1.9703629002906382],['target'],01,001,2024-10-10_11h43.45.220,Visual Search,2024.2.1post4,59.72762997644077,2024-10-10 11h43.57.971987 +0530,
142,0,142,[0.47333333333333333],[-0.19],[1],[0],[0],[2.3654733998700976],['target'],142,0,142,0,296.8595358999446,,5,296.84925020020455,296.8595358999446,296.8595358999446,0.016474999953061342,299.21515609975904,[0.47333333333333333],[-0.19],[1],[0],[0],[2.3654733998700976],['target'],01,001,2024-10-10_11h43.45.220,Visual Search,2024.2.1post4,59.72762997644077,2024-10-10 11h43.57.971987 +0530,
143,0,143,[-0.07833333333333334],[0.43333333333333335],[1],[0],[0],[2.0352885997854173],['target'],143,0,143,0,299.24327610014006,,5,299.2290813000873,299.24327610014006,299.24327610014006,0.013821700122207403,301.26479490008205,[-0.07833333333333334],[0.43333333333333335],[1],[0],[0],[2.0352885997854173],['target'],01,001,2024-10-10_11h43.45.220,Visual Search,2024.2.1post4,59.72762997644077,2024-10-10 11h43.57.971987 +0530,
144,0,144,[-0.37166666666666665],[-0.4116666666666667],[1],[0],[0],[1.8856542999856174],['target'],144,0,144,0,301.2930781999603,,5,301.27966280002147,301.2930781999603,301.2930781999603,0.014749499969184399,303.16574210021645,[-0.37166666666666665],[-0.4116666666666667],[1],[0],[0],[1.8856542999856174],['target'],01,001,2024-10-10_11h43.45.220,Visual Search,2024.2.1post4,59.72762997644077,2024-10-10 11h43.57.971987 +0530,
145,0,145,[0.30333333333333334],[-0.3233333333333333],[1],[0],[0],[1.8350769001990557],['target'],145,0,145,0,303.1929063000716,,5,303.1799226999283,303.1929063000716,303.1929063000716,0.014054400380700827,305.0154284001328,[0.30333333333333334],[-0.3233333333333333],[1],[0],[0],[1.8350769001990557],['target'],01,001,2024-10-10_11h43.45.220,Visual Search,2024.2.1post4,59.72762997644077,2024-10-10 11h43.57.971987 +0530,
146,0,146,[-0.27666666666666667],[-0.2833333333333333],[1],[0],[0],[1.5176800000481308],['target'],146,0,146,0,305.0430292999372,,5,305.03076970018446,305.0430292999372,305.0430292999372,0.015173499938100576,306.54891879996285,[-0.27666666666666667],[-0.2833333333333333],[1],[0],[0],[1.5176800000481308],['target'],01,001,2024-10-10_11h43.45.220,Visual Search,2024.2.1post4,59.72762997644077,2024-10-10 11h43.57.971987 +0530,
147,0,147,[-0.115],[0.22333333333333333],[1],[0],[0],[1.6369937001727521],['target'],147,0,147,0,306.5911933002062,,10,306.5780190997757,306.5911933002062,306.5911933002062,0.028936299961060286,308.2154884999618,[-0.115],[0.22333333333333333],[1],[0],[0],[1.6369937001727521],['target'],01,001,2024-10-10_11h43.45.220,Visual Search,2024.2.1post4,59.72762997644077,2024-10-10 11h43.57.971987 +0530,
148,0,148,[-0.15333333333333332],[-0.15],[1],[0],[0],[1.4276935001835227],['target'],148,0,148,0,308.26614359999076,,10,308.25317500019446,308.26614359999076,308.26614359999076,0.037509100046008825,309.68147099995986,[-0.15333333333333332],[-0.15],[1],[0],[0],[1.4276935001835227],['target'],01,001,2024-10-10_11h43.45.220,Visual Search,2024.2.1post4,59.72762997644077,2024-10-10 11h43.57.971987 +0530,
149,0,149,[0.4],[-0.36666666666666664],[1],[0],[0],[4.586992900352925],['target'],149,0,149,0,309.72225720016286,,10,309.7108291001059,309.72225720016286,309.72225720016286,0.029119299724698067,314.2982495999895,[0.4],[-0.36666666666666664],[1],[0],[0],[4.586992900352925],['target'],01,001,2024-10-10_11h43.45.220,Visual Search,2024.2.1post4,59.72762997644077,2024-10-10 11h43.57.971987 +0530,
150,0,150,[-0.22166666666666668],[0.3983333333333333],[1],[0],[0],[2.2323184004053473],['target'],150,0,150,0,314.34669259982184,,10,314.33236250001937,314.34669259982184,314.34669259982184,0.03391689993441105,316.56512420019135,[-0.22166666666666668],[0.3983333333333333],[1],[0],[0],[2.2323184004053473],['target'],01,001,2024-10-10_11h43.45.220,Visual Search,2024.2.1post4,59.72762997644077,2024-10-10 11h43.57.971987 +0530,
151,0,151,[0.445],[-0.13166666666666665],[1],[0],[0],[2.985179000068456],['target'],151,0,151,0,316.59312159987167,,5,316.57964329980314,316.59312159987167,316.59312159987167,0.014354200102388859,319.565246200189,[0.445],[-0.13166666666666665],[1],[0],[0],[2.985179000068456],['target'],01,001,2024-10-10_11h43.45.220,Visual Search,2024.2.1post4,59.72762997644077,2024-10-10 11h43.57.971987 +0530,
152,0,152,[0.11166666666666666],[0.425],[1],[0],[0],[1.868431099690497],['target'],152,0,152,0,319.59298379998654,,5,319.5791524001397,319.59298379998654,319.59298379998654,0.013780900277197361,321.448035299778,[0.11166666666666666],[0.425],[1],[0],[0],[1.868431099690497],['target'],01,001,2024-10-10_11h43.45.220,Visual Search,2024.2.1post4,59.72762997644077,2024-10-10 11h43.57.971987 +0530,
153,0,153,[-0.05333333333333334],[0.075],[1],[0],[0],[1.733124100137502],['target'],153,0,153,0,321.4759627999738,,5,321.4654202000238,321.4759627999738,321.4759627999738,0.017216899897903204,323.19895760016516,[-0.05333333333333334],[0.075],[1],[0],[0],[1.733124100137502],['target'],01,001,2024-10-10_11h43.45.220,Visual Search,2024.2.1post4,59.72762997644077,2024-10-10 11h43.57.971987 +0530,
154,0,154,[0.02],[-0.08833333333333333],[1],[0],[0],[2.721292399801314],['target'],154,0,154,0,323.2382840998471,,10,323.22685599979013,323.2382840998471,323.2382840998471,0.02778050024062395,325.94864269997925,[0.02],[-0.08833333333333333],[1],[0],[0],[2.721292399801314],['target'],01,001,2024-10-10_11h43.45.220,Visual Search,2024.2.1post4,59.72762997644077,2024-10-10 11h43.57.971987 +0530,
155,0,155,[-0.17166666666666666],[0.37166666666666665],[1],[0],[0],[1.6000643000006676],['target'],155,0,155,0,325.9761302000843,,5,325.96421349979937,325.9761302000843,325.9761302000843,0.015411899890750647,327.56478569982573,[-0.17166666666666666],[0.37166666666666665],[1],[0],[0],[1.6000643000006676],['target'],01,001,2024-10-10_11h43.45.220,Visual Search,2024.2.1post4,59.72762997644077,2024-10-10 11h43.57.971987 +0530,
156,0,156,[-0.27],[0.3883333333333333],[1],[0],[0],[1.235622899606824],['target'],156,0,156,0,327.5926800998859,,5,327.5786545998417,327.5926800998859,327.5926800998859,0.013675000052899122,328.8147652000189,[-0.27],[0.3883333333333333],[1],[0],[0],[1.235622899606824],['target'],01,001,2024-10-10_11h43.45.220,Visual Search,2024.2.1post4,59.72762997644077,2024-10-10 11h43.57.971987 +0530,
157,0,157,[0.22666666666666666],[-0.165],[1],[0],[0],[2.2723224996589124],['target'],157,0,157,0,328.8541143001057,,10,328.8427095999941,328.8541143001057,328.8541143001057,0.027806199621409178,331.11547309998423,[0.22666666666666666],[-0.165],[1],[0],[0],[2.2723224996589124],['target'],01,001,2024-10-10_11h43.45.220,Visual Search,2024.2.1post4,59.72762997644077,2024-10-10 11h43.57.971987 +0530,
158,0,158,[0.04833333333333333],[0.05333333333333334],[1],[0],[0],[1.9351774998940527],['target'],158,0,158,0,331.16131500015035,,10,331.14582860004157,331.16131500015035,331.16131500015035,0.030206599738448858,333.0814412999898,[0.04833333333333333],[0.05333333333333334],[1],[0],[0],[1.9351774998940527],['target'],01,001,2024-10-10_11h43.45.220,Visual Search,2024.2.1post4,59.72762997644077,2024-10-10 11h43.57.971987 +0530,
159,0,159,[-0.245],[0.31666666666666665],[1],[0],[0],[1.6980747999623418],['target'],159,0,159,0,333.1091281999834,,5,333.09970049979165,333.1091281999834,333.1091281999834,0.01802810002118349,334.7981893001124,[-0.245],[0.31666666666666665],[1],[0],[0],[1.6980747999623418],['target'],01,001,2024-10-10_11h43.45.220,Visual Search,2024.2.1post4,59.72762997644077,2024-10-10 11h43.57.971987 +0530,
160,0,160,[-0.4033333333333333],[0.08833333333333333],[1],[0],[0],[2.139569299761206],['target'],160,0,160,0,334.8366323001683,,10,334.8250782000832,334.8366323001683,334.8366323001683,0.026762300170958042,336.9650746998377,[-0.4033333333333333],[0.08833333333333333],[1],[0],[0],[2.139569299761206],['target'],01,001,2024-10-10_11h43.45.220,Visual Search,2024.2.1post4,59.72762997644077,2024-10-10 11h43.57.971987 +0530,
161,0,161,[0.09166666666666666],[0.1],[1],[0],[0],[1.5020687999203801],['target'],161,0,161,0,336.99314900022,,5,336.9792718999088,336.99314900022,336.99314900022,0.014038900379091501,338.4818246997893,[0.09166666666666666],[0.1],[1],[0],[0],[1.5020687999203801],['target'],01,001,2024-10-10_11h43.45.220,Visual Search,2024.2.1post4,59.72762997644077,2024-10-10 11h43.57.971987 +0530,
162,0,162,[-0.25166666666666665],[-0.4033333333333333],[1],[0],[0],[3.0538491997867823],['target'],162,0,162,0,338.52596150012687,,10,338.5112609001808,338.52596150012687,338.52596150012687,0.0292493999004364,341.5656985999085,[-0.25166666666666665],[-0.4033333333333333],[1],[0],[0],[3.0538491997867823],['target'],01,001,2024-10-10_11h43.45.220,Visual Search,2024.2.1post4,59.72762997644077,2024-10-10 11h43.57.971987 +0530,
163,0,163,[-0.105],[-0.105],[1],[0],[0],[2.2708933004178107],['target'],163,0,163,0,341.6057434999384,,10,341.5938050998375,341.6057434999384,341.6057434999384,0.027885599993169308,343.86512139998376,[-0.105],[-0.105],[1],[0],[0],[2.2708933004178107],['target'],01,001,2024-10-10_11h43.45.220,Visual Search,2024.2.1post4,59.72762997644077,2024-10-10 11h43.57.971987 +0530,
164,0,164,[0.035],[-0.09],[1],[0],[0],[2.8884502998553216],['target'],164,0,164,0,343.90540800010785,,10,343.8926920001395,343.90540800010785,343.90540800010785,0.027409199625253677,346.7815443999134,[0.035],[-0.09],[1],[0],[0],[2.8884502998553216],['target'],01,001,2024-10-10_11h43.45.220,Visual Search,2024.2.1post4,59.72762997644077,2024-10-10 11h43.57.971987 +0530,
165,0,165,[-0.41333333333333333],[-0.21],[1],[0],[0],[1.6558092995546758],['target'],165,0,165,0,346.82150680013,,10,346.8102706000209,346.82150680013,346.82150680013,0.028517200145870447,348.4665753999725,[-0.41333333333333333],[-0.21],[1],[0],[0],[1.6558092995546758],['target'],01,001,2024-10-10_11h43.45.220,Visual Search,2024.2.1post4,59.72762997644077,2024-10-10 11h43.57.971987 +0530,
166,0,166,[0.25166666666666665],[0.275],[1],[0],[0],[2.0275538000278175],['target'],166,0,166,0,348.51779109984636,,10,348.5033816001378,348.51779109984636,348.51779109984636,0.03656770009547472,350.5313952998258,[0.25166666666666665],[0.275],[1],[0],[0],[2.0275538000278175],['target'],01,001,2024-10-10_11h43.45.220,Visual Search,2024.2.1post4,59.72762997644077,2024-10-10 11h43.57.971987 +0530,
167,0,167,[-0.043333333333333335],[0.06333333333333334],[1],[0],[0],[2.25499609997496],['target'],167,0,167,0,350.5711993998848,,10,350.5598057000898,350.5711993998848,350.5711993998848,0.028203999623656273,352.8152397000231,[-0.043333333333333335],[0.06333333333333334],[1],[0],[0],[2.25499609997496],['target'],01,001,2024-10-10_11h43.45.220,Visual Search,2024.2.1post4,59.72762997644077,2024-10-10 11h43.57.971987 +0530,
168,0,168,[-0.36666666666666664],[-0.045],[1],[0],[0],[1.9730080999433994],['target'],168,0,168,0,352.85503950016573,,10,352.84242849983275,352.85503950016573,352.85503950016573,0.026985700242221355,354.8158935997635,[-0.36666666666666664],[-0.045],[1],[0],[0],[1.9730080999433994],['target'],01,001,2024-10-10_11h43.45.220,Visual Search,2024.2.1post4,59.72762997644077,2024-10-10 11h43.57.971987 +0530,
169,0,169,[-0.5033333333333333],[-0.33166666666666667],[1],[0],[0],[1.5177274998277426],['target'],169,0,169,0,354.85841439990327,,10,354.84665070008487,354.85841439990327,354.85841439990327,0.03054680023342371,356.36478269984946,[-0.5033333333333333],[-0.33166666666666667],[1],[0],[0],[1.5177274998277426],['target'],01,001,2024-10-10_11h43.45.220,Visual Search,2024.2.1post4,59.72762997644077,2024-10-10 11h43.57.971987 +0530,
170,0,170,[-0.43333333333333335],[0.26666666666666666],[1],[0],[0],[1.6808703998103738],['target'],170,0,170,0,356.3917274000123,,5,356.3829216999002,356.3917274000123,356.3917274000123,0.017938800156116486,358.0642074001953,[-0.43333333333333335],[0.26666666666666666],[1],[0],[0],[1.6808703998103738],['target'],01,001,2024-10-10_11h43.45.220,Visual Search,2024.2.1post4,59.72762997644077,2024-10-10 11h43.57.971987 +0530,
171,0,171,[-0.39166666666666666],[0.4716666666666667],[1],[0],[0],[2.2337998999282718],['target'],171,0,171,0,358.0920441998169,,5,358.0805215998553,358.0920441998169,358.0920441998169,0.016161300241947174,360.3147704000585,[-0.39166666666666666],[0.4716666666666667],[1],[0],[0],[2.2337998999282718],['target'],01,001,2024-10-10_11h43.45.220,Visual Search,2024.2.1post4,59.72762997644077,2024-10-10 11h43.57.971987 +0530,
172,0,172,[0.07166666666666667],[0.016666666666666666],[1],[0],[0],[2.6012951000593603],['target'],172,0,172,0,360.3599887001328,,10,360.34648230019957,360.3599887001328,360.3599887001328,0.03155960002914071,362.9483237997629,[0.07166666666666667],[0.016666666666666666],[1],[0],[0],[2.6012951000593603],['target'],01,001,2024-10-10_11h43.45.220,Visual Search,2024.2.1post4,59.72762997644077,2024-10-10 11h43.57.971987 +0530,
173,0,173,[-0.23333333333333334],[0.46166666666666667],[1],[0],[0],[3.968841999769211],['target'],173,0,173,0,362.99017790006474,,10,362.97852180013433,362.99017790006474,362.99017790006474,0.02998480014503002,366.94780550012365,[-0.23333333333333334],[0.46166666666666667],[1],[0],[0],[3.968841999769211],['target'],01,001,2024-10-10_11h43.45.220,Visual Search,2024.2.1post4,59.72762997644077,2024-10-10 11h43.57.971987 +0530,
174,0,174,[-0.46166666666666667],[0.4033333333333333],[1],[0],[0],[2.153688699938357],['target'],174,0,174,0,366.9905416998081,,10,366.9765691999346,366.9905416998081,366.9905416998081,0.028598499950021505,369.13067740015686,[-0.46166666666666667],[0.4033333333333333],[1],[0],[0],[2.153688699938357],['target'],01,001,2024-10-10_11h43.45.220,Visual Search,2024.2.1post4,59.72762997644077,2024-10-10 11h43.57.971987 +0530,
175,0,175,[0.27666666666666667],[-0.4066666666666667],[1],[0],[0],[1.936158100143075],['target'],175,0,175,0,369.1586278998293,,5,369.14538609981537,369.1586278998293,369.1586278998293,0.01455239998176694,371.08201949996874,[0.27666666666666667],[-0.4066666666666667],[1],[0],[0],[1.936158100143075],['target'],01,001,2024-10-10_11h43.45.220,Visual Search,2024.2.1post4,59.72762997644077,2024-10-10 11h43.57.971987 +0530,
176,0,176,[-0.11666666666666667],[0.24333333333333335],[1],[0],[0],[4.222524399869144],['target'],176,0,176,0,371.1381228999235,,10,371.1237538000569,371.1381228999235,371.1381228999235,0.04152380023151636,375.34672060003504,[-0.11666666666666667],[0.24333333333333335],[1],[0],[0],[4.222524399869144],['target'],01,001,2024-10-10_11h43.45.220,Visual Search,2024.2.1post4,59.72762997644077,2024-10-10 11h43.57.971987 +0530,
177,0,177,[0.09166666666666666],[0.15666666666666668],[1],[0],[0],[1.4846244999207556],['target'],177,0,177,0,375.3922434002161,,10,375.37964399997145,375.3922434002161,375.3922434002161,0.03275809995830059,376.86467659985647,[0.09166666666666666],[0.15666666666666668],[1],[0],[0],[1.4846244999207556],['target'],01,001,2024-10-10_11h43.45.220,Visual Search,2024.2.1post4,59.72762997644077,2024-10-10 11h43.57.971987 +0530,
178,0,178,[0.4066666666666667],[0.12833333333333333],[1],[0],[0],[2.6370585998520255],['target'],178,0,178,0,376.925060399808,,10,376.8942256998271,376.925060399808,376.925060399808,0.0293418001383543,379.5317009999417,[0.4066666666666667],[0.12833333333333333],[1],[0],[0],[2.6370585998520255],['target'],01,001,2024-10-10_11h43.45.220,Visual Search,2024.2.1post4,59.72762997644077,2024-10-10 11h43.57.971987 +0530,
179,0,179,[-0.27166666666666667],[-0.25333333333333335],[1],[0],[0],[2.0161554999649525],['target'],179,0,179,0,379.55812679976225,,5,379.5476462999359,379.55812679976225,379.55812679976225,0.015764000359922647,381.5641548000276,[-0.27166666666666667],[-0.25333333333333335],[1],[0],[0],[2.0161554999649525],['target'],01,001,2024-10-10_11h43.45.220,Visual Search,2024.2.1post4,59.72762997644077,2024-10-10 11h43.57.971987 +0530,
180,0,180,[0.32166666666666666],[-0.37666666666666665],[1],[0],[0],[1.466992599889636],['target'],180,0,180,0,381.5916430000216,,5,381.58001080015674,381.5916430000216,381.5916430000216,0.01573899993672967,383.04742320021614,[0.32166666666666666],[-0.37666666666666665],[1],[0],[0],[1.466992599889636],['target'],01,001,2024-10-10_11h43.45.220,Visual Search,2024.2.1post4,59.72762997644077,2024-10-10 11h43.57.971987 +0530,
181,0,181,[-0.005],[-0.415],[1],[0],[0],[1.7151809995993972],['target'],181,0,181,0,383.0753704002127,,5,383.0645241998136,383.0753704002127,383.0753704002127,0.016945899929851294,384.7803170001134,[-0.005],[-0.415],[1],[0],[0],[1.7151809995993972],['target'],01,001,2024-10-10_11h43.45.220,Visual Search,2024.2.1post4,59.72762997644077,2024-10-10 11h43.57.971987 +0530,
182,0,182,[0.36666666666666664],[-0.4583333333333333],[1],[0],[0],[2.3699996997602284],['target'],182,0,182,0,384.82168240007013,,10,384.81016020011157,384.82168240007013,384.82168240007013,0.029636200051754713,387.1806120998226,[0.36666666666666664],[-0.4583333333333333],[1],[0],[0],[2.3699996997602284],['target'],01,001,2024-10-10_11h43.45.220,Visual Search,2024.2.1post4,59.72762997644077,2024-10-10 11h43.57.971987 +0530,
183,0,183,[0.40166666666666667],[0.24666666666666667],[1],[0],[0],[2.2341184997931123],['target'],183,0,183,0,387.2083180001937,,5,387.1959959999658,387.2083180001937,387.2083180001937,0.015226299874484539,389.4305421002209,[0.40166666666666667],[0.24666666666666667],[1],[0],[0],[2.2341184997931123],['target'],01,001,2024-10-10_11h43.45.220,Visual Search,2024.2.1post4,59.72762997644077,2024-10-10 11h43.57.971987 +0530,
184,0,184,[0.3233333333333333],[0.195],[1],[0],[0],[1.4227497996762395],['target'],184,0,184,0,389.46871990012005,,10,389.4575388999656,389.46871990012005,389.46871990012005,0.02686899993568659,390.88074180018157,[0.3233333333333333],[0.195],[1],[0],[0],[1.4227497996762395],['target'],01,001,2024-10-10_11h43.45.220,Visual Search,2024.2.1post4,59.72762997644077,2024-10-10 11h43.57.971987 +0530,
185,0,185,[-0.19833333333333333],[-0.30333333333333334],[1],[0],[0],[2.372522700112313],['target'],185,0,185,0,390.91941830003634,,10,390.9077901998535,390.91941830003634,390.91941830003634,0.026833700016140938,393.2807303001173,[-0.19833333333333333],[-0.30333333333333334],[1],[0],[0],[2.372522700112313],['target'],01,001,2024-10-10_11h43.45.220,Visual Search,2024.2.1post4,59.72762997644077,2024-10-10 11h43.57.971987 +0530,
186,0,186,[-0.4216666666666667],[0.07166666666666667],[1],[0],[0],[1.8848747997544706],['target'],186,0,186,0,393.30853229993954,,5,393.29523839987814,393.30853229993954,393.30853229993954,0.014358699787408113,395.180526799988,[-0.4216666666666667],[0.07166666666666667],[1],[0],[0],[1.8848747997544706],['target'],01,001,2024-10-10_11h43.45.220,Visual Search,2024.2.1post4,59.72762997644077,2024-10-10 11h43.57.971987 +0530,
187,0,187,[0.32166666666666666],[0.07666666666666666],[1],[0],[0],[2.2059701001271605],['target'],187,0,187,0,395.21889190003276,,10,395.207427599933,395.21889190003276,395.21889190003276,0.02672840002924204,397.4139081002213,[0.32166666666666666],[0.07666666666666666],[1],[0],[0],[2.2059701001271605],['target'],01,001,2024-10-10_11h43.45.220,Visual Search,2024.2.1post4,59.72762997644077,2024-10-10 11h43.57.971987 +0530,
188,0,188,[-0.005],[0.4533333333333333],[1],[0],[0],[4.4682936002500355],['target'],188,0,188,0,397.45654560020193,,10,397.44475529994816,397.45654560020193,397.45654560020193,0.030684699770063162,401.91348520014435,[-0.005],[0.4533333333333333],[1],[0],[0],[4.4682936002500355],['target'],01,001,2024-10-10_11h43.45.220,Visual Search,2024.2.1post4,59.72762997644077,2024-10-10 11h43.57.971987 +0530,
189,0,189,[0.30833333333333335],[-0.3983333333333333],[1],[0],[0],[3.535914500243962],['target'],189,0,189,0,401.958131399937,,10,401.94500510022044,401.958131399937,401.958131399937,0.03128969995304942,405.48138660006225,[0.30833333333333335],[-0.3983333333333333],[1],[0],[0],[3.535914500243962],['target'],01,001,2024-10-10_11h43.45.220,Visual Search,2024.2.1post4,59.72762997644077,2024-10-10 11h43.57.971987 +0530,
190,0,190,[0.23833333333333334],[0.43],[1],[0],[0],[2.866949399933219],['target'],190,0,190,0,405.525319499895,,10,405.5134605001658,405.525319499895,405.525319499895,0.03192450013011694,408.3808691999875,[0.23833333333333334],[0.43],[1],[0],[0],[2.866949399933219],['target'],01,001,2024-10-10_11h43.45.220,Visual Search,2024.2.1post4,59.72762997644077,2024-10-10 11h43.57.971987 +0530,
191,0,191,[0.008333333333333333],[-0.19833333333333333],[1],[0],[0],[2.4511287002824247],['target'],191,0,191,0,408.4082325999625,,5,408.3960122000426,408.4082325999625,408.4082325999625,0.014924400020390749,410.84761339984834,[0.008333333333333333],[-0.19833333333333333],[1],[0],[0],[2.4511287002824247],['target'],01,001,2024-10-10_11h43.45.220,Visual Search,2024.2.1post4,59.72762997644077,2024-10-10 11h43.57.971987 +0530,
192,0,192,[-0.17333333333333334],[-0.43166666666666664],[1],[0],[0],[4.734394200146198],['target'],192,0,192,0,410.8922671000473,,10,410.87903469987214,410.8922671000473,410.8922671000473,0.031302500050514936,415.6138924998231,[-0.17333333333333334],[-0.43166666666666664],[1],[0],[0],[4.734394200146198],['target'],01,001,2024-10-10_11h43.45.220,Visual Search,2024.2.1post4,59.72762997644077,2024-10-10 11h43.57.971987 +0530,
193,0,193,[-0.11666666666666667],[-0.2],[1],[0],[0],[1.646384600084275],['target'],193,0,193,0,415.64313740003854,,5,415.6335649001412,415.64313740003854,415.64313740003854,0.019435999915003777,417.28040429996327,[-0.11666666666666667],[-0.2],[1],[0],[0],[1.646384600084275],['target'],01,001,2024-10-10_11h43.45.220,Visual Search,2024.2.1post4,59.72762997644077,2024-10-10 11h43.57.971987 +0530,
194,0,194,[-0.016666666666666666],[0.3233333333333333],[1],[0],[0],[1.5858769998885691],['target'],194,0,194,0,417.3078475999646,,5,417.295772400219,417.3078475999646,417.3078475999646,0.015193900093436241,418.8821605001576,[-0.016666666666666666],[0.3233333333333333],[1],[0],[0],[1.5858769998885691],['target'],01,001,2024-10-10_11h43.45.220,Visual Search,2024.2.1post4,59.72762997644077,2024-10-10 11h43.57.971987 +0530,
195,0,195,[0.016666666666666666],[0.16666666666666666],[1],[0],[0],[1.10874899988994],['target'],195,0,195,0,418.93465830013156,,10,418.92119699995965,418.93465830013156,418.93465830013156,0.038865199778229,420.03042139997706,[0.016666666666666666],[0.16666666666666666],[1],[0],[0],[1.10874899988994],['target'],01,001,2024-10-10_11h43.45.220,Visual Search,2024.2.1post4,59.72762997644077,2024-10-10 11h43.57.971987 +0530,
196,0,196,[0.18333333333333332],[0.25833333333333336],[1],[0],[0],[1.438533699605614],['target'],196,0,196,0,420.07073910022154,,10,420.0590131999925,420.07073910022154,420.07073910022154,0.028355099726468325,421.49795990018174,[0.18333333333333332],[0.25833333333333336],[1],[0],[0],[1.438533699605614],['target'],01,001,2024-10-10_11h43.45.220,Visual Search,2024.2.1post4,59.72762997644077,2024-10-10 11h43.57.971987 +0530,
197,0,197,[0.07],[-0.25166666666666665],[1],[0],[0],[2.30008660024032],['target'],197,0,197,0,421.5243518999778,,5,421.5122127002105,421.5243518999778,421.5243518999778,0.0141266998834908,423.8128631999716,[0.07],[-0.25166666666666665],[1],[0],[0],[2.30008660024032],['target'],01,001,2024-10-10_11h43.45.220,Visual Search,2024.2.1post4,59.72762997644077,2024-10-10 11h43.57.971987 +0530,
198,0,198,[-0.5233333333333333],[0.17333333333333334],[1],[0],[0],[2.120048299897462],['target'],198,0,198,0,423.84134300006554,,5,423.8252250999212,423.84134300006554,423.84134300006554,0.012153499759733677,425.94576730020344,[-0.5233333333333333],[0.17333333333333334],[1],[0],[0],[2.120048299897462],['target'],01,001,2024-10-10_11h43.45.220,Visual Search,2024.2.1post4,59.72762997644077,2024-10-10 11h43.57.971987 +0530,
199,0,199,[0.17],[-0.17666666666666667],[1],[0],[0],[2.062156300060451],['target'],199,0,199,0,425.9768922999501,,10,425.9671490001492,425.9768922999501,425.9768922999501,0.021207899786531925,428.0296860001981,[0.17],[-0.17666666666666667],[1],[0],[0],[2.062156300060451],['target'],01,001,2024-10-10_11h43.45.220,Visual Search,2024.2.1post4,59.72762997644077,2024-10-10 11h43.57.971987 +0530,
