thisN,thisTrialN,thisRepN,mouse.x,mouse.y,mouse.leftButton,mouse.midButton,mouse.rightButton,mouse.time,mouse.clicked_name,trials.thisRepN,trials.thisTrialN,trials.thisN,trials.thisIndex,thisRow.t,notes,num_distr,trial.started,fixation.started,target.started,mouse.started,trial.stopped,trials.mouse.x,trials.mouse.y,trials.mouse.leftButton,trials.mouse.midButton,trials.mouse.rightButton,trials.mouse.time,trials.mouse.clicked_name,participant,session,date,expName,psychopyVersion,frameRate,expStart,
0,0,0,[-0.017592592592592594],[-0.46574074074074073],[1],[0],[0],[2.000617300160229],['target'],0,0,0,0,0.04095289995893836,,5,0.02856130013242364,0.04095289995893836,0.04095289995893836,0.028312399983406067,2.029754400253296,[-0.017592592592592594],[-0.46574074074074073],[1],[0],[0],[2.000617300160229],['target'],02,001,2024-10-10_12h20.58.278,Visual Search,2024.2.1post4,60.076693805900796,2024-10-10 12h21.07.164025 +0530,
1,0,1,[-0.44537037037037036],[-0.22592592592592592],[1],[0],[0],[2.0577457998879254],['target'],1,0,1,0,2.073522000107914,,10,2.0593389002606273,2.073522000107914,2.073522000107914,0.029450099915266037,4.117528000380844,[-0.44537037037037036],[-0.22592592592592592],[1],[0],[0],[2.0577457998879254],['target'],02,001,2024-10-10_12h20.58.278,Visual Search,2024.2.1post4,60.076693805900796,2024-10-10 12h21.07.164025 +0530,
2,0,2,[-0.3435185185185185],[-0.2935185185185185],[1],[0],[0],[1.4249630998820066],['target'],2,0,2,0,4.161202900111675,,10,4.145893500186503,4.161202900111675,4.161202900111675,0.028198599815368652,5.57131540030241,[-0.3435185185185185],[-0.2935185185185185],[1],[0],[0],[1.4249630998820066],['target'],02,001,2024-10-10_12h20.58.278,Visual Search,2024.2.1post4,60.076693805900796,2024-10-10 12h21.07.164025 +0530,
3,0,3,[-0.30462962962962964],[-0.13055555555555556],[1],[0],[0],[2.2514511002227664],['target'],3,0,3,0,5.594590099994093,,5,5.585819800384343,5.594590099994093,5.594590099994093,0.014341199770569801,7.837772900238633,[-0.30462962962962964],[-0.13055555555555556],[1],[0],[0],[2.2514511002227664],['target'],02,001,2024-10-10_12h20.58.278,Visual Search,2024.2.1post4,60.076693805900796,2024-10-10 12h21.07.164025 +0530,
4,0,4,[-0.22314814814814815],[0.2074074074074074],[1],[0],[0],[1.6733601000159979],['target'],4,0,4,0,7.8815724002197385,,10,7.868379299994558,7.8815724002197385,7.8815724002197385,0.030472599901258945,9.542150200344622,[-0.22314814814814815],[0.2074074074074074],[1],[0],[0],[1.6733601000159979],['target'],02,001,2024-10-10_12h20.58.278,Visual Search,2024.2.1post4,60.076693805900796,2024-10-10 12h21.07.164025 +0530,
5,0,5,[-0.28055555555555556],[-0.11388888888888889],[1],[0],[0],[2.138825200032443],['target'],5,0,5,0,9.586616100277752,,10,9.573594700079411,9.586616100277752,9.586616100277752,0.031284399796277285,11.71286080032587,[-0.28055555555555556],[-0.11388888888888889],[1],[0],[0],[2.138825200032443],['target'],02,001,2024-10-10_12h20.58.278,Visual Search,2024.2.1post4,60.076693805900796,2024-10-10 12h21.07.164025 +0530,
6,0,6,[0.12222222222222222],[-0.15185185185185185],[1],[0],[0],[1.9494134997949004],['target'],6,0,6,0,11.739101600367576,,5,11.7300820001401,11.739101600367576,11.739101600367576,0.01700180023908615,13.679967900272459,[0.12222222222222222],[-0.15185185185185185],[1],[0],[0],[1.9494134997949004],['target'],02,001,2024-10-10_12h20.58.278,Visual Search,2024.2.1post4,60.076693805900796,2024-10-10 12h21.07.164025 +0530,
7,0,7,[0.2851851851851852],[-0.26666666666666666],[1],[0],[0],[2.0189978000707924],['target'],7,0,7,0,13.727252600248903,,10,13.713977900333703,13.727252600248903,13.727252600248903,0.03384640021249652,15.733415900263935,[0.2851851851851852],[-0.26666666666666666],[1],[0],[0],[2.0189978000707924],['target'],02,001,2024-10-10_12h20.58.278,Visual Search,2024.2.1post4,60.076693805900796,2024-10-10 12h21.07.164025 +0530,
8,0,8,[0.025],[-0.35648148148148145],[1],[0],[0],[1.788716800045222],['target'],8,0,8,0,15.780365200247616,,10,15.766037000343204,15.780365200247616,15.780365200247616,0.03246340015903115,17.55520260008052,[0.025],[-0.35648148148148145],[1],[0],[0],[1.788716800045222],['target'],02,001,2024-10-10_12h20.58.278,Visual Search,2024.2.1post4,60.076693805900796,2024-10-10 12h21.07.164025 +0530,
9,0,9,[-0.19074074074074074],[-0.4148148148148148],[1],[0],[0],[1.6175509998574853],['target'],9,0,9,0,17.579820500221103,,5,17.569642200134695,17.579820500221103,17.579820500221103,0.014277399983257055,19.18777670012787,[-0.19074074074074074],[-0.4148148148148148],[1],[0],[0],[1.6175509998574853],['target'],02,001,2024-10-10_12h20.58.278,Visual Search,2024.2.1post4,60.076693805900796,2024-10-10 12h21.07.164025 +0530,
10,0,10,[-0.41388888888888886],[-0.06759259259259259],[1],[0],[0],[1.5011422000825405],['target'],10,0,10,0,19.211647000163794,,5,19.202528499998152,19.211647000163794,19.211647000163794,0.014494699891656637,20.704217200167477,[-0.41388888888888886],[-0.06759259259259259],[1],[0],[0],[1.5011422000825405],['target'],02,001,2024-10-10_12h20.58.278,Visual Search,2024.2.1post4,60.076693805900796,2024-10-10 12h21.07.164025 +0530,
11,0,11,[-0.2972222222222222],[-0.2611111111111111],[1],[0],[0],[1.3100722995586693],['target'],11,0,11,0,20.744568900205195,,10,20.731098300311714,20.744568900205195,20.744568900205195,0.02673020027577877,22.041586000006646,[-0.2972222222222222],[-0.2611111111111111],[1],[0],[0],[1.3100722995586693],['target'],02,001,2024-10-10_12h20.58.278,Visual Search,2024.2.1post4,60.076693805900796,2024-10-10 12h21.07.164025 +0530,
12,0,12,[-0.049074074074074076],[0.2074074074074074],[1],[0],[0],[2.8910038000904024],['target'],12,0,12,0,22.084043400362134,,10,22.07121520023793,22.084043400362134,22.084043400362134,0.029464300256222486,24.96262940019369,[-0.049074074074074076],[0.2074074074074074],[1],[0],[0],[2.8910038000904024],['target'],02,001,2024-10-10_12h20.58.278,Visual Search,2024.2.1post4,60.076693805900796,2024-10-10 12h21.07.164025 +0530,
13,0,13,[-0.40370370370370373],[-0.2740740740740741],[1],[0],[0],[1.5009449999779463],['target'],13,0,13,0,24.98636950040236,,5,24.977746000047773,24.98636950040236,24.98636950040236,0.014941099565476179,26.479092500172555,[-0.40370370370370373],[-0.2740740740740741],[1],[0],[0],[1.5009449999779463],['target'],02,001,2024-10-10_12h20.58.278,Visual Search,2024.2.1post4,60.076693805900796,2024-10-10 12h21.07.164025 +0530,
14,0,14,[0.43796296296296294],[0.0712962962962963],[1],[0],[0],[1.5843295003287494],['target'],14,0,14,0,26.503028200007975,,5,26.493832900188863,26.503028200007975,26.503028200007975,0.014553999993950129,28.0785950999707,[0.43796296296296294],[0.0712962962962963],[1],[0],[0],[1.5843295003287494],['target'],02,001,2024-10-10_12h20.58.278,Visual Search,2024.2.1post4,60.076693805900796,2024-10-10 12h21.07.164025 +0530,
15,0,15,[-0.2722222222222222],[0.46944444444444444],[1],[0],[0],[4.292279799934477],['target'],15,0,15,0,28.12023670040071,,10,28.10689220018685,28.12023670040071,28.12023670040071,0.0281660002656281,32.39961330033839,[-0.2722222222222222],[0.46944444444444444],[1],[0],[0],[4.292279799934477],['target'],02,001,2024-10-10_12h20.58.278,Visual Search,2024.2.1post4,60.076693805900796,2024-10-10 12h21.07.164025 +0530,
16,0,16,[0.05740740740740741],[-0.31574074074074077],[1],[0],[0],[1.818533199839294],['target'],16,0,16,0,32.422918000258505,,5,32.4142196001485,32.422918000258505,32.422918000258505,0.014445899985730648,34.233216300141066,[0.05740740740740741],[-0.31574074074074077],[1],[0],[0],[1.818533199839294],['target'],02,001,2024-10-10_12h20.58.278,Visual Search,2024.2.1post4,60.076693805900796,2024-10-10 12h21.07.164025 +0530,
17,0,17,[0.03796296296296296],[0.4787037037037037],[1],[0],[0],[2.190848699770868],['target'],17,0,17,0,34.2755007003434,,10,34.262431600131094,34.2755007003434,34.2755007003434,0.029076100327074528,36.4538759002462,[0.03796296296296296],[0.4787037037037037],[1],[0],[0],[2.190848699770868],['target'],02,001,2024-10-10_12h20.58.278,Visual Search,2024.2.1post4,60.076693805900796,2024-10-10 12h21.07.164025 +0530,
18,0,18,[-0.0787037037037037],[-0.45555555555555555],[1],[0],[0],[1.9001325001008809],['target'],18,0,18,0,36.4845676003024,,5,36.471919800154865,36.4845676003024,36.4845676003024,0.01782230008393526,38.37248679995537,[-0.0787037037037037],[-0.45555555555555555],[1],[0],[0],[1.9001325001008809],['target'],02,001,2024-10-10_12h20.58.278,Visual Search,2024.2.1post4,60.076693805900796,2024-10-10 12h21.07.164025 +0530,
19,0,19,[-0.387037037037037],[-0.2675925925925926],[1],[0],[0],[1.948617999907583],['target'],19,0,19,0,38.398730700369924,,5,38.38927370030433,38.398730700369924,38.398730700369924,0.016665100120007992,40.33837400004268,[-0.387037037037037],[-0.2675925925925926],[1],[0],[0],[1.948617999907583],['target'],02,001,2024-10-10_12h20.58.278,Visual Search,2024.2.1post4,60.076693805900796,2024-10-10 12h21.07.164025 +0530,
20,0,20,[-0.15],[0.07222222222222222],[1],[0],[0],[1.3157351999543607],['target'],20,0,20,0,40.36575430026278,,5,40.35629260027781,40.36575430026278,40.36575430026278,0.01754349982365966,41.67241520015523,[-0.15],[0.07222222222222222],[1],[0],[0],[1.3157351999543607],['target'],02,001,2024-10-10_12h20.58.278,Visual Search,2024.2.1post4,60.076693805900796,2024-10-10 12h21.07.164025 +0530,
21,0,21,[-0.425],[-0.43703703703703706],[1],[0],[0],[2.417759300209582],['target'],21,0,21,0,41.69671369995922,,5,41.68739130022004,41.69671369995922,41.69671369995922,0.01482140040025115,44.10578830027953,[-0.425],[-0.43703703703703706],[1],[0],[0],[2.417759300209582],['target'],02,001,2024-10-10_12h20.58.278,Visual Search,2024.2.1post4,60.076693805900796,2024-10-10 12h21.07.164025 +0530,
22,0,22,[0.10092592592592593],[-0.06944444444444445],[1],[0],[0],[1.2908520000055432],['target'],22,0,22,0,44.14761540014297,,10,44.13491380028427,44.14761540014297,44.14761540014297,0.028982100076973438,45.42625869996846,[0.10092592592592593],[-0.06944444444444445],[1],[0],[0],[1.2908520000055432],['target'],02,001,2024-10-10_12h20.58.278,Visual Search,2024.2.1post4,60.076693805900796,2024-10-10 12h21.07.164025 +0530,
23,0,23,[-0.1574074074074074],[-0.39351851851851855],[1],[0],[0],[1.5187451001256704],['target'],23,0,23,0,45.449707500170916,,5,45.440716800279915,45.449707500170916,45.449707500170916,0.01422500004991889,46.959869500249624,[-0.1574074074074074],[-0.39351851851851855],[1],[0],[0],[1.5187451001256704],['target'],02,001,2024-10-10_12h20.58.278,Visual Search,2024.2.1post4,60.076693805900796,2024-10-10 12h21.07.164025 +0530,
24,0,24,[-0.31203703703703706],[-0.19722222222222222],[1],[0],[0],[1.8756356998346746],['target'],24,0,24,0,47.001723600085825,,10,46.98773659998551,47.001723600085825,47.001723600085825,0.027735400013625622,48.86374770011753,[-0.31203703703703706],[-0.19722222222222222],[1],[0],[0],[1.8756356998346746],['target'],02,001,2024-10-10_12h20.58.278,Visual Search,2024.2.1post4,60.076693805900796,2024-10-10 12h21.07.164025 +0530,
25,0,25,[-0.026851851851851852],[-0.3592592592592593],[1],[0],[0],[1.6688987999223173],['target'],25,0,25,0,48.88728959998116,,5,48.87842079997063,48.88728959998116,48.88728959998116,0.014512599911540747,50.54776079999283,[-0.026851851851851852],[-0.3592592592592593],[1],[0],[0],[1.6688987999223173],['target'],02,001,2024-10-10_12h20.58.278,Visual Search,2024.2.1post4,60.076693805900796,2024-10-10 12h21.07.164025 +0530,
26,0,26,[-0.2518518518518518],[0.08981481481481482],[1],[0],[0],[1.2680468000471592],['target'],26,0,26,0,50.57168629998341,,5,50.56214680010453,50.57168629998341,50.57168629998341,0.014252700377255678,51.83063460001722,[-0.2518518518518518],[0.08981481481481482],[1],[0],[0],[1.2680468000471592],['target'],02,001,2024-10-10_12h20.58.278,Visual Search,2024.2.1post4,60.076693805900796,2024-10-10 12h21.07.164025 +0530,
27,0,27,[-0.1175925925925926],[0.12129629629629629],[1],[0],[0],[1.5770312999375165],['target'],27,0,27,0,51.87207180028781,,10,51.85722410026938,51.87207180028781,51.87207180028781,0.026433399878442287,53.43476500036195,[-0.1175925925925926],[0.12129629629629629],[1],[0],[0],[1.5770312999375165],['target'],02,001,2024-10-10_12h20.58.278,Visual Search,2024.2.1post4,60.076693805900796,2024-10-10 12h21.07.164025 +0530,
28,0,28,[0.05555555555555555],[-0.22870370370370371],[1],[0],[0],[1.7813436002470553],['target'],28,0,28,0,53.46234690025449,,5,53.45282670017332,53.46234690025449,53.46234690025449,0.017847899813205004,55.23465700028464,[0.05555555555555555],[-0.22870370370370371],[1],[0],[0],[1.7813436002470553],['target'],02,001,2024-10-10_12h20.58.278,Visual Search,2024.2.1post4,60.076693805900796,2024-10-10 12h21.07.164025 +0530,
29,0,29,[-0.3972222222222222],[0.3333333333333333],[1],[0],[0],[1.8657247996889055],['target'],29,0,29,0,55.26187600009143,,5,55.25145390024409,55.26187600009143,55.26187600009143,0.016654800157994032,57.1176323001273,[-0.3972222222222222],[0.3333333333333333],[1],[0],[0],[1.8657247996889055],['target'],02,001,2024-10-10_12h20.58.278,Visual Search,2024.2.1post4,60.076693805900796,2024-10-10 12h21.07.164025 +0530,
30,0,30,[-0.053703703703703705],[-0.3907407407407407],[1],[0],[0],[1.7850478999316692],['target'],30,0,30,0,57.14189100032672,,5,57.13226600037888,57.14189100032672,57.14189100032672,0.014429700095206499,58.91774800000712,[-0.053703703703703705],[-0.3907407407407407],[1],[0],[0],[1.7850478999316692],['target'],02,001,2024-10-10_12h20.58.278,Visual Search,2024.2.1post4,60.076693805900796,2024-10-10 12h21.07.164025 +0530,
31,0,31,[-0.08425925925925926],[-0.412962962962963],[1],[0],[0],[1.8507215999998152],['target'],31,0,31,0,58.94456299999729,,5,58.93350310018286,58.94456299999729,58.94456299999729,0.015620699618011713,60.784693700261414,[-0.08425925925925926],[-0.412962962962963],[1],[0],[0],[1.8507215999998152],['target'],02,001,2024-10-10_12h20.58.278,Visual Search,2024.2.1post4,60.076693805900796,2024-10-10 12h21.07.164025 +0530,
32,0,32,[-0.4777777777777778],[-0.3388888888888889],[1],[0],[0],[1.8327843002043664],['target'],32,0,32,0,60.8097151000984,,5,60.80114020034671,60.8097151000984,60.8097151000984,0.016299100127071142,62.634378500282764,[-0.4777777777777778],[-0.3388888888888889],[1],[0],[0],[1.8327843002043664],['target'],02,001,2024-10-10_12h20.58.278,Visual Search,2024.2.1post4,60.076693805900796,2024-10-10 12h21.07.164025 +0530,
33,0,33,[0.2962962962962963],[-0.37962962962962965],[1],[0],[0],[3.20874710008502],['target'],33,0,33,0,62.677823200356215,,10,62.66298400005326,62.677823200356215,62.677823200356215,0.028476799838244915,65.87234900007024,[0.2962962962962963],[-0.37962962962962965],[1],[0],[0],[3.20874710008502],['target'],02,001,2024-10-10_12h20.58.278,Visual Search,2024.2.1post4,60.076693805900796,2024-10-10 12h21.07.164025 +0530,
34,0,34,[-0.03981481481481482],[-0.34074074074074073],[1],[0],[0],[1.818664699792862],['target'],34,0,34,0,65.8958074003458,,5,65.88670320017263,65.8958074003458,65.8958074003458,0.014103000052273273,67.70575940003619,[-0.03981481481481482],[-0.34074074074074073],[1],[0],[0],[1.818664699792862],['target'],02,001,2024-10-10_12h20.58.278,Visual Search,2024.2.1post4,60.076693805900796,2024-10-10 12h21.07.164025 +0530,
35,0,35,[0.2324074074074074],[0.10555555555555556],[1],[0],[0],[1.9674709001556039],['target'],35,0,35,0,67.73025360004976,,5,67.72041549999267,67.73025360004976,67.73025360004976,0.01443680003285408,69.68834270024672,[0.2324074074074074],[0.10555555555555556],[1],[0],[0],[1.9674709001556039],['target'],02,001,2024-10-10_12h20.58.278,Visual Search,2024.2.1post4,60.076693805900796,2024-10-10 12h21.07.164025 +0530,
36,0,36,[-0.3435185185185185],[-0.030555555555555555],[1],[0],[0],[1.3854817999526858],['target'],36,0,36,0,69.71219600038603,,5,69.70295350020751,69.71219600038603,69.71219600038603,0.014478400349617004,71.08892669994384,[-0.3435185185185185],[-0.030555555555555555],[1],[0],[0],[1.3854817999526858],['target'],02,001,2024-10-10_12h20.58.278,Visual Search,2024.2.1post4,60.076693805900796,2024-10-10 12h21.07.164025 +0530,
37,0,37,[-0.10092592592592593],[0.48148148148148145],[1],[0],[0],[4.256879600230604],['target'],37,0,37,0,71.13388690026477,,10,71.11916510015726,71.13388690026477,71.13388690026477,0.030046800151467323,75.37664020014927,[-0.10092592592592593],[0.48148148148148145],[1],[0],[0],[4.256879600230604],['target'],02,001,2024-10-10_12h20.58.278,Visual Search,2024.2.1post4,60.076693805900796,2024-10-10 12h21.07.164025 +0530,
38,0,38,[0.22962962962962963],[0.26481481481481484],[1],[0],[0],[1.676184399984777],['target'],38,0,38,0,75.41642939997837,,10,75.40389139996842,75.41642939997837,75.41642939997837,0.027021299581974745,77.08046550024301,[0.22962962962962963],[0.26481481481481484],[1],[0],[0],[1.676184399984777],['target'],02,001,2024-10-10_12h20.58.278,Visual Search,2024.2.1post4,60.076693805900796,2024-10-10 12h21.07.164025 +0530,
39,0,39,[0.42407407407407405],[0.262037037037037],[1],[0],[0],[1.7849837001413107],['target'],39,0,39,0,77.10442139999941,,5,77.09515220019966,77.10442139999941,77.10442139999941,0.01452490035444498,78.88052000012249,[0.42407407407407405],[0.262037037037037],[1],[0],[0],[1.7849837001413107],['target'],02,001,2024-10-10_12h20.58.278,Visual Search,2024.2.1post4,60.076693805900796,2024-10-10 12h21.07.164025 +0530,
40,0,40,[-0.22037037037037038],[0.39814814814814814],[1],[0],[0],[1.941265500150621],['target'],40,0,40,0,78.92204670002684,,10,78.90930410008878,78.92204670002684,78.92204670002684,0.028609900269657373,80.85111150005832,[-0.22037037037037038],[0.39814814814814814],[1],[0],[0],[1.941265500150621],['target'],02,001,2024-10-10_12h20.58.278,Visual Search,2024.2.1post4,60.076693805900796,2024-10-10 12h21.07.164025 +0530,
41,0,41,[0.4759259259259259],[0.15185185185185185],[1],[0],[0],[1.7350267004221678],['target'],41,0,41,0,80.8746070000343,,5,80.86549940006807,80.8746070000343,80.8746070000343,0.014228000305593014,82.60094609996304,[0.4759259259259259],[0.15185185185185185],[1],[0],[0],[1.7350267004221678],['target'],02,001,2024-10-10_12h20.58.278,Visual Search,2024.2.1post4,60.076693805900796,2024-10-10 12h21.07.164025 +0530,
42,0,42,[0.40185185185185185],[-0.1574074074074074],[1],[0],[0],[1.8173414999619126],['target'],42,0,42,0,82.62519189994782,,5,82.61613600002602,82.62519189994782,82.62519189994782,0.01506840018555522,84.43389190034941,[0.40185185185185185],[-0.1574074074074074],[1],[0],[0],[1.8173414999619126],['target'],02,001,2024-10-10_12h20.58.278,Visual Search,2024.2.1post4,60.076693805900796,2024-10-10 12h21.07.164025 +0530,
43,0,43,[-0.10555555555555556],[0.09444444444444444],[1],[0],[0],[1.9176479997113347],['target'],43,0,43,0,84.46058320021257,,5,84.44929070025682,84.46058320021257,84.46058320021257,0.015283799730241299,86.36738740000874,[-0.10555555555555556],[0.09444444444444444],[1],[0],[0],[1.9176479997113347],['target'],02,001,2024-10-10_12h20.58.278,Visual Search,2024.2.1post4,60.076693805900796,2024-10-10 12h21.07.164025 +0530,
44,0,44,[0.06481481481481481],[-0.25092592592592594],[1],[0],[0],[3.1902194004505873],['target'],44,0,44,0,86.41208810033277,,10,86.39736730000004,86.41208810033277,86.41208810033277,0.02984890015795827,89.58817860018462,[0.06481481481481481],[-0.25092592592592594],[1],[0],[0],[3.1902194004505873],['target'],02,001,2024-10-10_12h20.58.278,Visual Search,2024.2.1post4,60.076693805900796,2024-10-10 12h21.07.164025 +0530,
45,0,45,[-0.4388888888888889],[-0.3925925925925926],[1],[0],[0],[2.616587500087917],['target'],45,0,45,0,89.61354350019246,,5,89.60472950013354,89.61354350019246,89.61354350019246,0.01626960001885891,92.22176380036399,[-0.4388888888888889],[-0.3925925925925926],[1],[0],[0],[2.616587500087917],['target'],02,001,2024-10-10_12h20.58.278,Visual Search,2024.2.1post4,60.076693805900796,2024-10-10 12h21.07.164025 +0530,
46,0,46,[0.28425925925925927],[0.004629629629629629],[1],[0],[0],[1.69883819995448],['target'],46,0,46,0,92.24867100035772,,5,92.23901320016012,92.24867100035772,92.24867100035772,0.017077999655157328,93.93829159997404,[0.28425925925925927],[0.004629629629629629],[1],[0],[0],[1.69883819995448],['target'],02,001,2024-10-10_12h20.58.278,Visual Search,2024.2.1post4,60.076693805900796,2024-10-10 12h21.07.164025 +0530,
47,0,47,[0.012037037037037037],[-0.3592592592592593],[1],[0],[0],[1.7997460002079606],['target'],47,0,47,0,93.96415919996798,,5,93.95499450014904,93.96415919996798,93.96415919996798,0.01657800003886223,95.75521530024707,[0.012037037037037037],[-0.3592592592592593],[1],[0],[0],[1.7997460002079606],['target'],02,001,2024-10-10_12h20.58.278,Visual Search,2024.2.1post4,60.076693805900796,2024-10-10 12h21.07.164025 +0530,
48,0,48,[0.4009259259259259],[0.4324074074074074],[1],[0],[0],[3.5239397999830544],['target'],48,0,48,0,95.79721230035648,,10,95.78448330005631,95.79721230035648,95.79721230035648,0.02912659989669919,99.30883390037343,[0.4009259259259259],[0.4324074074074074],[1],[0],[0],[3.5239397999830544],['target'],02,001,2024-10-10_12h20.58.278,Visual Search,2024.2.1post4,60.076693805900796,2024-10-10 12h21.07.164025 +0530,
49,0,49,[0.12777777777777777],[-0.4388888888888889],[1],[0],[0],[3.225449400022626],['target'],49,0,49,0,99.35120900021866,,10,99.33684360003099,99.35120900021866,99.35120900021866,0.027857100125402212,102.56273750029504,[0.12777777777777777],[-0.4388888888888889],[1],[0],[0],[3.225449400022626],['target'],02,001,2024-10-10_12h20.58.278,Visual Search,2024.2.1post4,60.076693805900796,2024-10-10 12h21.07.164025 +0530,
50,0,50,[-0.2324074074074074],[0.15185185185185185],[1],[0],[0],[2.5727905998937786],['target'],50,0,50,0,102.6092630000785,,10,102.59498170018196,102.6092630000785,102.6092630000785,0.03198090009391308,105.16818640008569,[-0.2324074074074074],[0.15185185185185185],[1],[0],[0],[2.5727905998937786],['target'],02,001,2024-10-10_12h20.58.278,Visual Search,2024.2.1post4,60.076693805900796,2024-10-10 12h21.07.164025 +0530,
51,0,51,[0.10092592592592593],[0.07962962962962963],[1],[0],[0],[1.4995234999805689],['target'],51,0,51,0,105.19371330039576,,5,105.1844021002762,105.19371330039576,105.19371330039576,0.01600460009649396,106.68434920022264,[0.10092592592592593],[0.07962962962962963],[1],[0],[0],[1.4995234999805689],['target'],02,001,2024-10-10_12h20.58.278,Visual Search,2024.2.1post4,60.076693805900796,2024-10-10 12h21.07.164025 +0530,
52,0,52,[-0.09537037037037037],[0.21574074074074073],[1],[0],[0],[1.368053900077939],['target'],52,0,52,0,106.70822660019621,,5,106.69833920011297,106.70822660019621,106.70822660019621,0.01386120030656457,108.066815700382,[-0.09537037037037037],[0.21574074074074073],[1],[0],[0],[1.368053900077939],['target'],02,001,2024-10-10_12h20.58.278,Visual Search,2024.2.1post4,60.076693805900796,2024-10-10 12h21.07.164025 +0530,
53,0,53,[0.44074074074074077],[0.32685185185185184],[1],[0],[0],[3.409375200048089],['target'],53,0,53,0,108.10842690011486,,10,108.09485420025885,108.10842690011486,108.10842690011486,0.027908899821341038,111.50473150005564,[0.44074074074074077],[0.32685185185185184],[1],[0],[0],[3.409375200048089],['target'],02,001,2024-10-10_12h20.58.278,Visual Search,2024.2.1post4,60.076693805900796,2024-10-10 12h21.07.164025 +0530,
54,0,54,[-0.15925925925925927],[0.18796296296296297],[1],[0],[0],[1.6071802000515163],['target'],54,0,54,0,111.54800650011748,,10,111.53410020004958,111.54800650011748,111.54800650011748,0.029159999918192625,113.14169439999387,[-0.15925925925925927],[0.18796296296296297],[1],[0],[0],[1.6071802000515163],['target'],02,001,2024-10-10_12h20.58.278,Visual Search,2024.2.1post4,60.076693805900796,2024-10-10 12h21.07.164025 +0530,
55,0,55,[-0.39444444444444443],[0.48148148148148145],[1],[0],[0],[2.883745600003749],['target'],55,0,55,0,113.16732130013406,,5,113.15803330019116,113.16732130013406,113.16732130013406,0.01618660008534789,116.04246020037681,[-0.39444444444444443],[0.48148148148148145],[1],[0],[0],[2.883745600003749],['target'],02,001,2024-10-10_12h20.58.278,Visual Search,2024.2.1post4,60.076693805900796,2024-10-10 12h21.07.164025 +0530,
56,0,56,[-0.13148148148148148],[0.32685185185185184],[1],[0],[0],[1.6413257997483015],['target'],56,0,56,0,116.08403150038794,,10,116.07094430038705,116.08403150038794,116.08403150038794,0.028336599934846163,117.71271730028093,[-0.13148148148148148],[0.32685185185185184],[1],[0],[0],[1.6413257997483015],['target'],02,001,2024-10-10_12h20.58.278,Visual Search,2024.2.1post4,60.076693805900796,2024-10-10 12h21.07.164025 +0530,
57,0,57,[-0.275],[0.3990740740740741],[1],[0],[0],[1.4184097000397742],['target'],57,0,57,0,117.73600370017812,,5,117.72719820030034,117.73600370017812,117.73600370017812,0.014323499985039234,119.14607540005818,[-0.275],[0.3990740740740741],[1],[0],[0],[1.4184097000397742],['target'],02,001,2024-10-10_12h20.58.278,Visual Search,2024.2.1post4,60.076693805900796,2024-10-10 12h21.07.164025 +0530,
58,0,58,[-0.3453703703703704],[-0.39814814814814814],[1],[0],[0],[2.826711899600923],['target'],58,0,58,0,119.18732070038095,,10,119.17358040018007,119.18732070038095,119.18732070038095,0.02737519983202219,122.00080850021914,[-0.3453703703703704],[-0.39814814814814814],[1],[0],[0],[2.826711899600923],['target'],02,001,2024-10-10_12h20.58.278,Visual Search,2024.2.1post4,60.076693805900796,2024-10-10 12h21.07.164025 +0530,
59,0,59,[-0.3287037037037037],[-0.1962962962962963],[1],[0],[0],[1.5501852999441326],['target'],59,0,59,0,122.02544590039179,,5,122.01659410027787,122.02544590039179,122.02544590039179,0.015629599802196026,123.56719910027459,[-0.3287037037037037],[-0.1962962962962963],[1],[0],[0],[1.5501852999441326],['target'],02,001,2024-10-10_12h20.58.278,Visual Search,2024.2.1post4,60.076693805900796,2024-10-10 12h21.07.164025 +0530,
60,0,60,[0.020370370370370372],[-0.24259259259259258],[1],[0],[0],[2.7865132996812463],['target'],60,0,60,0,123.61618910031393,,10,123.60065810009837,123.61618910031393,123.61618910031393,0.03328320011496544,126.38755880016834,[0.020370370370370372],[-0.24259259259259258],[1],[0],[0],[2.7865132996812463],['target'],02,001,2024-10-10_12h20.58.278,Visual Search,2024.2.1post4,60.076693805900796,2024-10-10 12h21.07.164025 +0530,
61,0,61,[-0.3685185185185185],[0.18981481481481483],[1],[0],[0],[1.7726263999938965],['target'],61,0,61,0,126.43395650014281,,10,126.4187809000723,126.43395650014281,126.43395650014281,0.031038899905979633,128.19182520033792,[-0.3685185185185185],[0.18981481481481483],[1],[0],[0],[1.7726263999938965],['target'],02,001,2024-10-10_12h20.58.278,Visual Search,2024.2.1post4,60.076693805900796,2024-10-10 12h21.07.164025 +0530,
62,0,62,[-0.2064814814814815],[-0.39537037037037037],[1],[0],[0],[2.6071452000178397],['target'],62,0,62,0,128.23517889995128,,10,128.22189770033583,128.23517889995128,128.23517889995128,0.029859500005841255,130.8296990999952,[-0.2064814814814815],[-0.39537037037037037],[1],[0],[0],[2.6071452000178397],['target'],02,001,2024-10-10_12h20.58.278,Visual Search,2024.2.1post4,60.076693805900796,2024-10-10 12h21.07.164025 +0530,
63,0,63,[0.4842592592592593],[0.27685185185185185],[1],[0],[0],[1.7821193002164364],['target'],63,0,63,0,130.85522409994155,,5,130.84631799999624,130.85522409994155,130.85522409994155,0.016387099865823984,132.62896240036935,[0.4842592592592593],[0.27685185185185185],[1],[0],[0],[1.7821193002164364],['target'],02,001,2024-10-10_12h20.58.278,Visual Search,2024.2.1post4,60.076693805900796,2024-10-10 12h21.07.164025 +0530,
64,0,64,[-0.22685185185185186],[0.3175925925925926],[1],[0],[0],[1.790121499914676],['target'],64,0,64,0,132.6719105001539,,10,132.65926250023767,132.6719105001539,132.6719105001539,0.03017630008980632,134.4498573001474,[-0.22685185185185186],[0.3175925925925926],[1],[0],[0],[1.790121499914676],['target'],02,001,2024-10-10_12h20.58.278,Visual Search,2024.2.1post4,60.076693805900796,2024-10-10 12h21.07.164025 +0530,
65,0,65,[-0.33611111111111114],[-0.15092592592592594],[1],[0],[0],[2.1926772999577224],['target'],65,0,65,0,134.49200520012528,,10,134.47781220031902,134.49200520012528,134.49200520012528,0.02780369995161891,136.67092850012705,[-0.33611111111111114],[-0.15092592592592594],[1],[0],[0],[2.1926772999577224],['target'],02,001,2024-10-10_12h20.58.278,Visual Search,2024.2.1post4,60.076693805900796,2024-10-10 12h21.07.164025 +0530,
66,0,66,[0.3453703703703704],[0.4212962962962963],[1],[0],[0],[2.168332400266081],['target'],66,0,66,0,136.69430300034583,,5,136.6849798001349,136.69430300034583,136.69430300034583,0.01382480002939701,138.8537599002011,[0.3453703703703704],[0.4212962962962963],[1],[0],[0],[2.168332400266081],['target'],02,001,2024-10-10_12h20.58.278,Visual Search,2024.2.1post4,60.076693805900796,2024-10-10 12h21.07.164025 +0530,
67,0,67,[0.09444444444444444],[-0.16296296296296298],[1],[0],[0],[2.2733018998987973],['target'],67,0,67,0,138.89654990006238,,10,138.88397510023788,138.89654990006238,138.89654990006238,0.03002500021830201,141.15769280027598,[0.09444444444444444],[-0.16296296296296298],[1],[0],[0],[2.2733018998987973],['target'],02,001,2024-10-10_12h20.58.278,Visual Search,2024.2.1post4,60.076693805900796,2024-10-10 12h21.07.164025 +0530,
68,0,68,[0.3638888888888889],[-0.09351851851851851],[1],[0],[0],[1.5396835003048182],['target'],68,0,68,0,141.20214590011165,,10,141.18903650017455,141.20214590011165,141.20214590011165,0.031163800042122602,142.72916970029473,[0.3638888888888889],[-0.09351851851851851],[1],[0],[0],[1.5396835003048182],['target'],02,001,2024-10-10_12h20.58.278,Visual Search,2024.2.1post4,60.076693805900796,2024-10-10 12h21.07.164025 +0530,
69,0,69,[0.32314814814814813],[-0.058333333333333334],[1],[0],[0],[1.8072261000052094],['target'],69,0,69,0,142.7721881000325,,10,142.7593857999891,142.7721881000325,142.7721881000325,0.030045699793845415,144.56699640024453,[0.32314814814814813],[-0.058333333333333334],[1],[0],[0],[1.8072261000052094],['target'],02,001,2024-10-10_12h20.58.278,Visual Search,2024.2.1post4,60.076693805900796,2024-10-10 12h21.07.164025 +0530,
70,0,70,[0.13796296296296295],[-0.03148148148148148],[1],[0],[0],[1.2179570002481341],['target'],70,0,70,0,144.5900182002224,,5,144.58164200000465,144.5900182002224,144.5900182002224,0.014444000087678432,145.80003669997677,[0.13796296296296295],[-0.03148148148148148],[1],[0],[0],[1.2179570002481341],['target'],02,001,2024-10-10_12h20.58.278,Visual Search,2024.2.1post4,60.076693805900796,2024-10-10 12h21.07.164025 +0530,
71,0,71,[-0.09259259259259259],[-0.04351851851851852],[1],[0],[0],[1.805901899933815],['target'],71,0,71,0,145.8441183003597,,10,145.8312715999782,145.8441183003597,145.8441183003597,0.03109900001436472,147.63763330038637,[-0.09259259259259259],[-0.04351851851851852],[1],[0],[0],[1.805901899933815],['target'],02,001,2024-10-10_12h20.58.278,Visual Search,2024.2.1post4,60.076693805900796,2024-10-10 12h21.07.164025 +0530,
72,0,72,[0.42314814814814816],[0.30277777777777776],[1],[0],[0],[2.0345783000811934],['target'],72,0,72,0,147.66127290017903,,5,147.6520985001698,147.66127290017903,147.66127290017903,0.014307199977338314,149.68710050033405,[0.42314814814814816],[0.30277777777777776],[1],[0],[0],[2.0345783000811934],['target'],02,001,2024-10-10_12h20.58.278,Visual Search,2024.2.1post4,60.076693805900796,2024-10-10 12h21.07.164025 +0530,
73,0,73,[0.28888888888888886],[0.48518518518518516],[1],[0],[0],[1.9013995002023876],['target'],73,0,73,0,149.71250190027058,,5,149.70259310025722,149.71250190027058,149.71250190027058,0.015341800171881914,151.6043762001209,[0.28888888888888886],[0.48518518518518516],[1],[0],[0],[1.9013995002023876],['target'],02,001,2024-10-10_12h20.58.278,Visual Search,2024.2.1post4,60.076693805900796,2024-10-10 12h21.07.164025 +0530,
74,0,74,[0.19166666666666668],[0.4685185185185185],[1],[0],[0],[1.6055145002901554],['target'],74,0,74,0,151.64902190025896,,10,151.63560539996251,151.64902190025896,151.64902190025896,0.031122600194066763,153.24155580019578,[0.19166666666666668],[0.4685185185185185],[1],[0],[0],[1.6055145002901554],['target'],02,001,2024-10-10_12h20.58.278,Visual Search,2024.2.1post4,60.076693805900796,2024-10-10 12h21.07.164025 +0530,
75,0,75,[0.24259259259259258],[0.43333333333333335],[1],[0],[0],[2.6088745002634823],['target'],75,0,75,0,153.28404990024865,,10,153.26918740011752,153.28404990024865,153.28404990024865,0.027462800033390522,155.8784825000912,[0.24259259259259258],[0.43333333333333335],[1],[0],[0],[2.6088745002634823],['target'],02,001,2024-10-10_12h20.58.278,Visual Search,2024.2.1post4,60.076693805900796,2024-10-10 12h21.07.164025 +0530,
76,0,76,[0.37037037037037035],[0.005555555555555556],[1],[0],[0],[2.5603924999013543],['target'],76,0,76,0,155.91907060006633,,10,155.9058578000404,155.91907060006633,155.91907060006633,0.027217399794608355,158.46662900038064,[0.37037037037037035],[0.005555555555555556],[1],[0],[0],[2.5603924999013543],['target'],02,001,2024-10-10_12h20.58.278,Visual Search,2024.2.1post4,60.076693805900796,2024-10-10 12h21.07.164025 +0530,
77,0,77,[0.3537037037037037],[0.4148148148148148],[1],[0],[0],[2.07224790006876],['target'],77,0,77,0,158.51037680031732,,10,158.4975285003893,158.51037680031732,158.51037680031732,0.030725799966603518,160.57035130029544,[0.3537037037037037],[0.4148148148148148],[1],[0],[0],[2.07224790006876],['target'],02,001,2024-10-10_12h20.58.278,Visual Search,2024.2.1post4,60.076693805900796,2024-10-10 12h21.07.164025 +0530,
78,0,78,[-0.25092592592592594],[0.020370370370370372],[1],[0],[0],[2.152268399950117],['target'],78,0,78,0,160.59425450023264,,5,160.5847674002871,160.59425450023264,160.59425450023264,0.014200299978256226,162.737460100092,[-0.25092592592592594],[0.020370370370370372],[1],[0],[0],[2.152268399950117],['target'],02,001,2024-10-10_12h20.58.278,Visual Search,2024.2.1post4,60.076693805900796,2024-10-10 12h21.07.164025 +0530,
79,0,79,[-0.005555555555555556],[-0.09351851851851851],[1],[0],[0],[1.3490853998810053],['target'],79,0,79,0,162.76261850027367,,5,162.75406110007316,162.76261850027367,162.76261850027367,0.016436999663710594,164.1035384000279,[-0.005555555555555556],[-0.09351851851851851],[1],[0],[0],[1.3490853998810053],['target'],02,001,2024-10-10_12h20.58.278,Visual Search,2024.2.1post4,60.076693805900796,2024-10-10 12h21.07.164025 +0530,
80,0,80,[0.046296296296296294],[-0.07407407407407407],[1],[0],[0],[0.9913347000256181],['target'],80,0,80,0,164.14628460025415,,10,164.13270690012723,164.14628460025415,164.14628460025415,0.029002100229263306,165.12444390030578,[0.046296296296296294],[-0.07407407407407407],[1],[0],[0],[0.9913347000256181],['target'],02,001,2024-10-10_12h20.58.278,Visual Search,2024.2.1post4,60.076693805900796,2024-10-10 12h21.07.164025 +0530,
81,0,81,[-0.15185185185185185],[-0.009259259259259259],[1],[0],[0],[1.28325720038265],['target'],81,0,81,0,165.15086090005934,,5,165.14122930029407,165.15086090005934,165.15086090005934,0.016634200233966112,166.42498859995976,[-0.15185185185185185],[-0.009259259259259259],[1],[0],[0],[1.28325720038265],['target'],02,001,2024-10-10_12h20.58.278,Visual Search,2024.2.1post4,60.076693805900796,2024-10-10 12h21.07.164025 +0530,
82,0,82,[0.27685185185185185],[-0.2675925925925926],[1],[0],[0],[2.2374054002575576],['target'],82,0,82,0,166.4714325000532,,10,166.45802630018443,166.4714325000532,166.4714325000532,0.0328707997687161,168.69585520029068,[0.27685185185185185],[-0.2675925925925926],[1],[0],[0],[2.2374054002575576],['target'],02,001,2024-10-10_12h20.58.278,Visual Search,2024.2.1post4,60.076693805900796,2024-10-10 12h21.07.164025 +0530,
83,0,83,[0.019444444444444445],[0.18611111111111112],[1],[0],[0],[2.0568585000000894],['target'],83,0,83,0,168.73759730020538,,10,168.72487709997222,168.73759730020538,168.73759730020538,0.028814100194722414,170.7823346001096,[0.019444444444444445],[0.18611111111111112],[1],[0],[0],[2.0568585000000894],['target'],02,001,2024-10-10_12h20.58.278,Visual Search,2024.2.1post4,60.076693805900796,2024-10-10 12h21.07.164025 +0530,
84,0,84,[0.4537037037037037],[0.4759259259259259],[1],[0],[0],[1.951916899997741],['target'],84,0,84,0,170.80673560034484,,5,170.79706920031458,170.80673560034484,170.80673560034484,0.01445579994469881,172.74939810018986,[0.4537037037037037],[0.4759259259259259],[1],[0],[0],[1.951916899997741],['target'],02,001,2024-10-10_12h20.58.278,Visual Search,2024.2.1post4,60.076693805900796,2024-10-10 12h21.07.164025 +0530,
85,0,85,[-0.34074074074074073],[-0.26296296296296295],[1],[0],[0],[2.5514175998978317],['target'],85,0,85,0,172.77356920018792,,5,172.76437710039318,172.77356920018792,172.77356920018792,0.014860500115901232,175.31633590022102,[-0.34074074074074073],[-0.26296296296296295],[1],[0],[0],[2.5514175998978317],['target'],02,001,2024-10-10_12h20.58.278,Visual Search,2024.2.1post4,60.076693805900796,2024-10-10 12h21.07.164025 +0530,
86,0,86,[0.2212962962962963],[-0.44074074074074077],[1],[0],[0],[2.364340600091964],['target'],86,0,86,0,175.34685700014234,,5,175.33659820025787,175.34685700014234,175.34685700014234,0.019912699703127146,177.70144340023398,[0.2212962962962963],[-0.44074074074074077],[1],[0],[0],[2.364340600091964],['target'],02,001,2024-10-10_12h20.58.278,Visual Search,2024.2.1post4,60.076693805900796,2024-10-10 12h21.07.164025 +0530,
87,0,87,[-0.42777777777777776],[-0.17037037037037037],[1],[0],[0],[2.4567011003382504],['target'],87,0,87,0,177.74556200020015,,10,177.73157850001007,177.74556200020015,177.74556200020015,0.030011000111699104,180.1886965003796,[-0.42777777777777776],[-0.17037037037037037],[1],[0],[0],[2.4567011003382504],['target'],02,001,2024-10-10_12h20.58.278,Visual Search,2024.2.1post4,60.076693805900796,2024-10-10 12h21.07.164025 +0530,
88,0,88,[0.19814814814814816],[0.09259259259259259],[1],[0],[0],[1.7993586999364197],['target'],88,0,88,0,180.21459560003132,,5,180.2057734001428,180.21459560003132,180.21459560003132,0.01692780014127493,182.00553980004042,[0.19814814814814816],[0.09259259259259259],[1],[0],[0],[1.7993586999364197],['target'],02,001,2024-10-10_12h20.58.278,Visual Search,2024.2.1post4,60.076693805900796,2024-10-10 12h21.07.164025 +0530,
89,0,89,[0.3611111111111111],[0.11296296296296296],[1],[0],[0],[1.801452400162816],['target'],89,0,89,0,182.02873599994928,,5,182.02005170006305,182.02873599994928,182.02873599994928,0.014383899979293346,183.82207180000842,[0.3611111111111111],[0.11296296296296296],[1],[0],[0],[1.801452400162816],['target'],02,001,2024-10-10_12h20.58.278,Visual Search,2024.2.1post4,60.076693805900796,2024-10-10 12h21.07.164025 +0530,
90,0,90,[-0.46296296296296297],[-0.4722222222222222],[1],[0],[0],[2.6517650997266173],['target'],90,0,90,0,183.8456532000564,,5,183.83629370015115,183.8456532000564,183.8456532000564,0.014078299980610609,186.4884475003928,[-0.46296296296296297],[-0.4722222222222222],[1],[0],[0],[2.6517650997266173],['target'],02,001,2024-10-10_12h20.58.278,Visual Search,2024.2.1post4,60.076693805900796,2024-10-10 12h21.07.164025 +0530,
91,0,91,[-0.49166666666666664],[0.14074074074074075],[1],[0],[0],[2.373811900150031],['target'],91,0,91,0,186.531478300225,,10,186.5184476999566,186.531478300225,186.531478300225,0.029876399785280228,188.89266010001302,[-0.49166666666666664],[0.14074074074074075],[1],[0],[0],[2.373811900150031],['target'],02,001,2024-10-10_12h20.58.278,Visual Search,2024.2.1post4,60.076693805900796,2024-10-10 12h21.07.164025 +0530,
92,0,92,[-0.40370370370370373],[0.06481481481481481],[1],[0],[0],[1.4182393997907639],['target'],92,0,92,0,188.91645770007744,,5,188.90763740008697,188.91645770007744,188.91645770007744,0.014820200391113758,190.32629849994555,[-0.40370370370370373],[0.06481481481481481],[1],[0],[0],[1.4182393997907639],['target'],02,001,2024-10-10_12h20.58.278,Visual Search,2024.2.1post4,60.076693805900796,2024-10-10 12h21.07.164025 +0530,
93,0,93,[0.39351851851851855],[0.053703703703703705],[1],[0],[0],[1.8495642999187112],['target'],93,0,93,0,190.35271580005065,,5,190.34265000000596,190.35271580005065,190.35271580005065,0.016187300439924,192.19261409994215,[0.39351851851851855],[0.053703703703703705],[1],[0],[0],[1.8495642999187112],['target'],02,001,2024-10-10_12h20.58.278,Visual Search,2024.2.1post4,60.076693805900796,2024-10-10 12h21.07.164025 +0530,
94,0,94,[-0.018518518518518517],[-0.3675925925925926],[1],[0],[0],[2.373209500219673],['target'],94,0,94,0,192.2357600000687,,10,192.22294840030372,192.2357600000687,192.2357600000687,0.030205799732357264,194.59665410034359,[-0.018518518518518517],[-0.3675925925925926],[1],[0],[0],[2.373209500219673],['target'],02,001,2024-10-10_12h20.58.278,Visual Search,2024.2.1post4,60.076693805900796,2024-10-10 12h21.07.164025 +0530,
95,0,95,[-0.43703703703703706],[0.2518518518518518],[1],[0],[0],[1.7897381000220776],['target'],95,0,95,0,194.64050830015913,,10,194.62750330008566,194.64050830015913,194.64050830015913,0.030612200032919645,196.4176288000308,[-0.43703703703703706],[0.2518518518518518],[1],[0],[0],[1.7897381000220776],['target'],02,001,2024-10-10_12h20.58.278,Visual Search,2024.2.1post4,60.076693805900796,2024-10-10 12h21.07.164025 +0530,
96,0,96,[-0.046296296296296294],[-0.17222222222222222],[1],[0],[0],[2.0684207999147475],['target'],96,0,96,0,196.44103680038825,,5,196.43216740014032,196.44103680038825,196.44103680038825,0.014330300036817789,198.50100139994174,[-0.046296296296296294],[-0.17222222222222222],[1],[0],[0],[2.0684207999147475],['target'],02,001,2024-10-10_12h20.58.278,Visual Search,2024.2.1post4,60.076693805900796,2024-10-10 12h21.07.164025 +0530,
97,0,97,[0.36018518518518516],[-0.42777777777777776],[1],[0],[0],[2.418734800070524],['target'],97,0,97,0,198.52463250001892,,5,198.5153536000289,198.52463250001892,198.52463250001892,0.014232899993658066,200.9346817000769,[0.36018518518518516],[-0.42777777777777776],[1],[0],[0],[2.418734800070524],['target'],02,001,2024-10-10_12h20.58.278,Visual Search,2024.2.1post4,60.076693805900796,2024-10-10 12h21.07.164025 +0530,
98,0,98,[-0.20462962962962963],[0.4675925925925926],[1],[0],[0],[2.415112799964845],['target'],98,0,98,0,200.96057260036469,,5,200.95158600015566,200.96057260036469,200.96057260036469,0.016732800286263227,203.36714870017022,[-0.20462962962962963],[0.4675925925925926],[1],[0],[0],[2.415112799964845],['target'],02,001,2024-10-10_12h20.58.278,Visual Search,2024.2.1post4,60.076693805900796,2024-10-10 12h21.07.164025 +0530,
99,0,99,[-0.37407407407407406],[-0.3990740740740741],[1],[0],[0],[2.9017272000201046],['target'],99,0,99,0,203.39049690030515,,5,203.38185330014676,203.39049690030515,203.39049690030515,0.01457899995148182,206.28401570022106,[-0.37407407407407406],[-0.3990740740740741],[1],[0],[0],[2.9017272000201046],['target'],02,001,2024-10-10_12h20.58.278,Visual Search,2024.2.1post4,60.076693805900796,2024-10-10 12h21.07.164025 +0530,
100,0,100,[0.41388888888888886],[0.37037037037037035],[1],[0],[0],[1.9576435000635684],['target'],100,0,100,0,206.32666920032352,,10,206.31332040019333,206.32666920032352,206.32666920032352,0.029170900117605925,208.27138649998233,[0.41388888888888886],[0.37037037037037035],[1],[0],[0],[1.9576435000635684],['target'],02,001,2024-10-10_12h20.58.278,Visual Search,2024.2.1post4,60.076693805900796,2024-10-10 12h21.07.164025 +0530,
101,0,101,[-0.20833333333333334],[-0.4583333333333333],[1],[0],[0],[3.368555299937725],['target'],101,0,101,0,208.29554440034553,,5,208.28595100017264,208.29554440034553,208.29554440034553,0.014409800060093403,211.65492040012032,[-0.20833333333333334],[-0.4583333333333333],[1],[0],[0],[3.368555299937725],['target'],02,001,2024-10-10_12h20.58.278,Visual Search,2024.2.1post4,60.076693805900796,2024-10-10 12h21.07.164025 +0530,
102,0,102,[-0.13055555555555556],[-0.1935185185185185],[1],[0],[0],[1.7251591999083757],['target'],102,0,102,0,211.69693370023742,,10,211.68360250024125,211.69693370023742,211.69693370023742,0.028512599878013134,213.40915430011228,[-0.13055555555555556],[-0.1935185185185185],[1],[0],[0],[1.7251591999083757],['target'],02,001,2024-10-10_12h20.58.278,Visual Search,2024.2.1post4,60.076693805900796,2024-10-10 12h21.07.164025 +0530,
103,0,103,[-0.33055555555555555],[-0.010185185185185186],[1],[0],[0],[2.1348704998381436],['target'],103,0,103,0,213.4333121003583,,5,213.42364150006324,213.4333121003583,213.4333121003583,0.014262299984693527,215.55896720010787,[-0.33055555555555555],[-0.010185185185185186],[1],[0],[0],[2.1348704998381436],['target'],02,001,2024-10-10_12h20.58.278,Visual Search,2024.2.1post4,60.076693805900796,2024-10-10 12h21.07.164025 +0530,
104,0,104,[-0.29259259259259257],[0.003703703703703704],[1],[0],[0],[1.2062634998001158],['target'],104,0,104,0,215.60241249995306,,10,215.589491000399,215.60241249995306,215.60241249995306,0.03032999997958541,216.7963123000227,[-0.29259259259259257],[0.003703703703703704],[1],[0],[0],[1.2062634998001158],['target'],02,001,2024-10-10_12h20.58.278,Visual Search,2024.2.1post4,60.076693805900796,2024-10-10 12h21.07.164025 +0530,
105,0,105,[0.09351851851851851],[-0.1287037037037037],[1],[0],[0],[2.075640399940312],['target'],105,0,105,0,216.83873980026692,,10,216.82533240038902,216.83873980026692,216.83873980026692,0.02879060013219714,218.90136310039088,[0.09351851851851851],[-0.1287037037037037],[1],[0],[0],[2.075640399940312],['target'],02,001,2024-10-10_12h20.58.278,Visual Search,2024.2.1post4,60.076693805900796,2024-10-10 12h21.07.164025 +0530,
106,0,106,[0.14537037037037037],[0.32685185185185184],[1],[0],[0],[2.2341914996504784],['target'],106,0,106,0,218.9263228001073,,5,218.91693900013342,218.9263228001073,218.9263228001073,0.015368899796158075,221.15156530030072,[0.14537037037037037],[0.32685185185185184],[1],[0],[0],[2.2341914996504784],['target'],02,001,2024-10-10_12h20.58.278,Visual Search,2024.2.1post4,60.076693805900796,2024-10-10 12h21.07.164025 +0530,
107,0,107,[0.19537037037037036],[0.27685185185185185],[1],[0],[0],[1.2334679001942277],['target'],107,0,107,0,221.1964497002773,,10,221.1829147003591,221.1964497002773,221.1964497002773,0.031195600051432848,222.41684040008113,[0.19537037037037036],[0.27685185185185185],[1],[0],[0],[1.2334679001942277],['target'],02,001,2024-10-10_12h20.58.278,Visual Search,2024.2.1post4,60.076693805900796,2024-10-10 12h21.07.164025 +0530,
108,0,108,[-0.29814814814814816],[-0.42962962962962964],[1],[0],[0],[2.77451950032264],['target'],108,0,108,0,222.4595360001549,,10,222.44652790017426,222.4595360001549,222.4595360001549,0.029533199965953827,225.2214444000274,[-0.29814814814814816],[-0.42962962962962964],[1],[0],[0],[2.77451950032264],['target'],02,001,2024-10-10_12h20.58.278,Visual Search,2024.2.1post4,60.076693805900796,2024-10-10 12h21.07.164025 +0530,
109,0,109,[0.20185185185185187],[0.17314814814814813],[1],[0],[0],[1.8756116000004113],['target'],109,0,109,0,225.2628311002627,,10,225.24943750025705,225.2628311002627,225.2628311002627,0.0278091998770833,227.12557490030304,[0.20185185185185187],[0.17314814814814813],[1],[0],[0],[1.8756116000004113],['target'],02,001,2024-10-10_12h20.58.278,Visual Search,2024.2.1post4,60.076693805900796,2024-10-10 12h21.07.164025 +0530,
110,0,110,[-0.08703703703703704],[-0.325],[1],[0],[0],[2.0527546000666916],['target'],110,0,110,0,227.1489365999587,,5,227.13962469995022,227.1489365999587,227.1489365999587,0.013881599996238947,229.1928042001091,[-0.08703703703703704],[-0.325],[1],[0],[0],[2.0527546000666916],['target'],02,001,2024-10-10_12h20.58.278,Visual Search,2024.2.1post4,60.076693805900796,2024-10-10 12h21.07.164025 +0530,
111,0,111,[-0.2777777777777778],[0.06018518518518518],[1],[0],[0],[2.148423600010574],['target'],111,0,111,0,229.21980890026316,,5,229.20988890016451,229.21980890026316,229.21980890026316,0.01692620012909174,231.3589966003783,[-0.2777777777777778],[0.06018518518518518],[1],[0],[0],[2.148423600010574],['target'],02,001,2024-10-10_12h20.58.278,Visual Search,2024.2.1post4,60.076693805900796,2024-10-10 12h21.07.164025 +0530,
112,0,112,[-0.2351851851851852],[0.3277777777777778],[1],[0],[0],[1.282737699802965],['target'],112,0,112,0,231.3852902003564,,5,231.37538160011172,231.3852902003564,231.3852902003564,0.01624669972807169,232.6585269002244,[-0.2351851851851852],[0.3277777777777778],[1],[0],[0],[1.282737699802965],['target'],02,001,2024-10-10_12h20.58.278,Visual Search,2024.2.1post4,60.076693805900796,2024-10-10 12h21.07.164025 +0530,
113,0,113,[-0.3],[0.39351851851851855],[1],[0],[0],[1.409421100281179],['target'],113,0,113,0,232.69960780022666,,10,232.68622450018302,232.69960780022666,232.69960780022666,0.027539200149476528,234.09616730036214,[-0.3],[0.39351851851851855],[1],[0],[0],[1.409421100281179],['target'],02,001,2024-10-10_12h20.58.278,Visual Search,2024.2.1post4,60.076693805900796,2024-10-10 12h21.07.164025 +0530,
114,0,114,[-0.3509259259259259],[0.4166666666666667],[1],[0],[0],[1.3587088002823293],['target'],114,0,114,0,234.13807930005714,,10,234.12532859994099,234.13807930005714,234.13807930005714,0.02895070007070899,235.48445490002632,[-0.3509259259259259],[0.4166666666666667],[1],[0],[0],[1.3587088002823293],['target'],02,001,2024-10-10_12h20.58.278,Visual Search,2024.2.1post4,60.076693805900796,2024-10-10 12h21.07.164025 +0530,
115,0,115,[0.38333333333333336],[0.4388888888888889],[1],[0],[0],[2.0162404999136925],['target'],115,0,115,0,235.50924060028046,,5,235.49977320013568,235.50924060028046,235.50924060028046,0.015164299868047237,237.51640580035746,[0.38333333333333336],[0.4388888888888889],[1],[0],[0],[2.0162404999136925],['target'],02,001,2024-10-10_12h20.58.278,Visual Search,2024.2.1post4,60.076693805900796,2024-10-10 12h21.07.164025 +0530,
116,0,116,[0.2212962962962963],[0.24074074074074073],[1],[0],[0],[1.5428352998569608],['target'],116,0,116,0,237.55767869995907,,10,237.54490109998733,237.55767869995907,237.55767869995907,0.028374599758535624,239.08816270017996,[0.2212962962962963],[0.24074074074074073],[1],[0],[0],[1.5428352998569608],['target'],02,001,2024-10-10_12h20.58.278,Visual Search,2024.2.1post4,60.076693805900796,2024-10-10 12h21.07.164025 +0530,
117,0,117,[0.39351851851851855],[-0.01574074074074074],[1],[0],[0],[2.138869700022042],['target'],117,0,117,0,239.1325618000701,,10,239.11938640009612,239.1325618000701,239.1325618000701,0.031017000321298838,241.25868260022253,[0.39351851851851855],[-0.01574074074074074],[1],[0],[0],[2.138869700022042],['target'],02,001,2024-10-10_12h20.58.278,Visual Search,2024.2.1post4,60.076693805900796,2024-10-10 12h21.07.164025 +0530,
118,0,118,[0.43333333333333335],[-0.019444444444444445],[1],[0],[0],[1.5023030997253954],['target'],118,0,118,0,241.2827276000753,,5,241.27314840024337,241.2827276000753,241.2827276000753,0.01430749986320734,242.77604759996757,[0.43333333333333335],[-0.019444444444444445],[1],[0],[0],[1.5023030997253954],['target'],02,001,2024-10-10_12h20.58.278,Visual Search,2024.2.1post4,60.076693805900796,2024-10-10 12h21.07.164025 +0530,
119,0,119,[0.275],[0.1361111111111111],[1],[0],[0],[1.7222883002832532],['target'],119,0,119,0,242.8195323003456,,10,242.80642270017415,242.8195323003456,242.8195323003456,0.030256500001996756,244.5291663003154,[0.275],[0.1361111111111111],[1],[0],[0],[1.7222883002832532],['target'],02,001,2024-10-10_12h20.58.278,Visual Search,2024.2.1post4,60.076693805900796,2024-10-10 12h21.07.164025 +0530,
120,0,120,[0.04537037037037037],[-0.43148148148148147],[1],[0],[0],[2.2679860000498593],['target'],120,0,120,0,244.55432570027187,,5,244.54489560006186,244.55432570027187,244.55432570027187,0.015579100232571363,246.81328879995272,[0.04537037037037037],[-0.43148148148148147],[1],[0],[0],[2.2679860000498593],['target'],02,001,2024-10-10_12h20.58.278,Visual Search,2024.2.1post4,60.076693805900796,2024-10-10 12h21.07.164025 +0530,
121,0,121,[-0.07037037037037037],[-0.3638888888888889],[1],[0],[0],[1.5706608998589218],['target'],121,0,121,0,246.85953909996897,,10,246.84595970017835,246.85953909996897,246.85953909996897,0.032542199827730656,248.4170540003106,[-0.07037037037037037],[-0.3638888888888889],[1],[0],[0],[1.5706608998589218],['target'],02,001,2024-10-10_12h20.58.278,Visual Search,2024.2.1post4,60.076693805900796,2024-10-10 12h21.07.164025 +0530,
122,0,122,[0.13055555555555556],[-0.18703703703703703],[1],[0],[0],[1.890461300034076],['target'],122,0,122,0,248.45987890008837,,10,248.4469739999622,248.45987890008837,248.45987890008837,0.029762099962681532,250.337886699941,[0.13055555555555556],[-0.18703703703703703],[1],[0],[0],[1.890461300034076],['target'],02,001,2024-10-10_12h20.58.278,Visual Search,2024.2.1post4,60.076693805900796,2024-10-10 12h21.07.164025 +0530,
123,0,123,[-0.23981481481481481],[-0.07314814814814814],[1],[0],[0],[2.272471200209111],['target'],123,0,123,0,250.381528200116,,10,250.36847120011225,250.381528200116,250.381528200116,0.030426899902522564,252.64140469999984,[-0.23981481481481481],[-0.07314814814814814],[1],[0],[0],[2.272471200209111],['target'],02,001,2024-10-10_12h20.58.278,Visual Search,2024.2.1post4,60.076693805900796,2024-10-10 12h21.07.164025 +0530,
124,0,124,[0.08703703703703704],[0.3101851851851852],[1],[0],[0],[1.7521032001823187],['target'],124,0,124,0,252.66564210038632,,5,252.6558517999947,252.66564210038632,252.66564210038632,0.014293299987912178,254.40844100015238,[0.08703703703703704],[0.3101851851851852],[1],[0],[0],[1.7521032001823187],['target'],02,001,2024-10-10_12h20.58.278,Visual Search,2024.2.1post4,60.076693805900796,2024-10-10 12h21.07.164025 +0530,
125,0,125,[0.007407407407407408],[0.09537037037037037],[1],[0],[0],[1.5329319001175463],['target'],125,0,125,0,254.43401690013707,,5,254.4246791000478,254.43401690013707,254.43401690013707,0.01611860003322363,255.95804820023477,[0.007407407407407408],[0.09537037037037037],[1],[0],[0],[1.5329319001175463],['target'],02,001,2024-10-10_12h20.58.278,Visual Search,2024.2.1post4,60.076693805900796,2024-10-10 12h21.07.164025 +0530,
126,0,126,[0.15185185185185185],[-0.3907407407407407],[1],[0],[0],[1.9346942999400198],['target'],126,0,126,0,255.98173260036856,,5,255.97254330012947,255.98173260036856,255.98173260036856,0.014362799935042858,257.9078033003025,[0.15185185185185185],[-0.3907407407407407],[1],[0],[0],[1.9346942999400198],['target'],02,001,2024-10-10_12h20.58.278,Visual Search,2024.2.1post4,60.076693805900796,2024-10-10 12h21.07.164025 +0530,
127,0,127,[-0.14907407407407408],[0.2962962962962963],[1],[0],[0],[1.9996167002245784],['target'],127,0,127,0,257.9336290000938,,5,257.9247510000132,257.9336290000938,257.9336290000938,0.01676089968532324,259.9247904000804,[-0.14907407407407408],[0.2962962962962963],[1],[0],[0],[1.9996167002245784],['target'],02,001,2024-10-10_12h20.58.278,Visual Search,2024.2.1post4,60.076693805900796,2024-10-10 12h21.07.164025 +0530,
128,0,128,[-0.2101851851851852],[-0.18333333333333332],[1],[0],[0],[1.7023024000227451],['target'],128,0,128,0,259.9480511001311,,5,259.93902540020645,259.9480511001311,259.9480511001311,0.014109599869698286,261.64186049997807,[-0.2101851851851852],[-0.18333333333333332],[1],[0],[0],[1.7023024000227451],['target'],02,001,2024-10-10_12h20.58.278,Visual Search,2024.2.1post4,60.076693805900796,2024-10-10 12h21.07.164025 +0530,
129,0,129,[0.18518518518518517],[0.03981481481481482],[1],[0],[0],[1.9759215000085533],['target'],129,0,129,0,261.68255880009383,,10,261.6692286999896,261.68255880009383,261.68255880009383,0.027238599956035614,263.6456850999966,[0.18518518518518517],[0.03981481481481482],[1],[0],[0],[1.9759215000085533],['target'],02,001,2024-10-10_12h20.58.278,Visual Search,2024.2.1post4,60.076693805900796,2024-10-10 12h21.07.164025 +0530,
130,0,130,[-0.36018518518518516],[-0.005555555555555556],[1],[0],[0],[1.851806899998337],['target'],130,0,130,0,263.6696061003022,,5,263.66008640034124,263.6696061003022,263.6696061003022,0.01423970004543662,265.5122994002886,[-0.36018518518518516],[-0.005555555555555556],[1],[0],[0],[1.851806899998337],['target'],02,001,2024-10-10_12h20.58.278,Visual Search,2024.2.1post4,60.076693805900796,2024-10-10 12h21.07.164025 +0530,
131,0,131,[0.3685185185185185],[0.3712962962962963],[1],[0],[0],[1.8854714999906719],['target'],131,0,131,0,265.53754140017554,,5,265.5269842003472,265.53754140017554,265.53754140017554,0.014561500400304794,267.4128848002292,[0.3685185185185185],[0.3712962962962963],[1],[0],[0],[1.8854714999906719],['target'],02,001,2024-10-10_12h20.58.278,Visual Search,2024.2.1post4,60.076693805900796,2024-10-10 12h21.07.164025 +0530,
132,0,132,[-0.30833333333333335],[-0.21203703703703702],[1],[0],[0],[2.592681899666786],['target'],132,0,132,0,267.45266260020435,,10,267.439561100211,267.45266260020435,267.45266260020435,0.026558699551969767,270.0326742003672,[-0.30833333333333335],[-0.21203703703703702],[1],[0],[0],[2.592681899666786],['target'],02,001,2024-10-10_12h20.58.278,Visual Search,2024.2.1post4,60.076693805900796,2024-10-10 12h21.07.164025 +0530,
133,0,133,[-0.001851851851851852],[-0.4462962962962963],[1],[0],[0],[3.743346099741757],['target'],133,0,133,0,270.07357890019193,,10,270.06023430032656,270.07357890019193,270.07357890019193,0.027395499870181084,273.80397130036727,[-0.001851851851851852],[-0.4462962962962963],[1],[0],[0],[3.743346099741757],['target'],02,001,2024-10-10_12h20.58.278,Visual Search,2024.2.1post4,60.076693805900796,2024-10-10 12h21.07.164025 +0530,
134,0,134,[0.29814814814814816],[-0.06388888888888888],[1],[0],[0],[3.5563750001601875],['target'],134,0,134,0,273.8487451002002,,10,273.83480710024014,273.8487451002002,273.8487451002002,0.030650800094008446,277.3916230001487,[0.29814814814814816],[-0.06388888888888888],[1],[0],[0],[3.5563750001601875],['target'],02,001,2024-10-10_12h20.58.278,Visual Search,2024.2.1post4,60.076693805900796,2024-10-10 12h21.07.164025 +0530,
135,0,135,[0.29814814814814816],[-0.125],[1],[0],[0],[1.3042880003340542],['target'],135,0,135,0,277.4365914002992,,10,277.42406010022387,277.4365914002992,277.4365914002992,0.03222799999639392,278.7288215002045,[0.29814814814814816],[-0.125],[1],[0],[0],[1.3042880003340542],['target'],02,001,2024-10-10_12h20.58.278,Visual Search,2024.2.1post4,60.076693805900796,2024-10-10 12h21.07.164025 +0530,
136,0,136,[-0.21296296296296297],[-0.2324074074074074],[1],[0],[0],[2.942475200165063],['target'],136,0,136,0,278.7694260003045,,10,278.7560825003311,278.7694260003045,278.7694260003045,0.02701239986345172,281.69895620038733,[-0.21296296296296297],[-0.2324074074074074],[1],[0],[0],[2.942475200165063],['target'],02,001,2024-10-10_12h20.58.278,Visual Search,2024.2.1post4,60.076693805900796,2024-10-10 12h21.07.164025 +0530,
137,0,137,[0.008333333333333333],[-0.42962962962962964],[1],[0],[0],[2.4348947000689805],['target'],137,0,137,0,281.7237420999445,,5,281.71423340030015,281.7237420999445,281.7237420999445,0.015130500309169292,284.1496377000585,[0.008333333333333333],[-0.42962962962962964],[1],[0],[0],[2.4348947000689805],['target'],02,001,2024-10-10_12h20.58.278,Visual Search,2024.2.1post4,60.076693805900796,2024-10-10 12h21.07.164025 +0530,
138,0,138,[-0.34814814814814815],[-0.4648148148148148],[1],[0],[0],[2.466302600223571],['target'],138,0,138,0,284.17570120003074,,5,284.1661287001334,284.17570120003074,284.17570120003074,0.016371399629861116,286.63289210014045,[-0.34814814814814815],[-0.4648148148148148],[1],[0],[0],[2.466302600223571],['target'],02,001,2024-10-10_12h20.58.278,Visual Search,2024.2.1post4,60.076693805900796,2024-10-10 12h21.07.164025 +0530,
139,0,139,[0.38055555555555554],[-0.3537037037037037],[1],[0],[0],[2.83228229964152],['target'],139,0,139,0,286.65838270029053,,5,286.64954530028626,286.65838270029053,286.65838270029053,0.016487599816173315,289.4822357003577,[0.38055555555555554],[-0.3537037037037037],[1],[0],[0],[2.83228229964152],['target'],02,001,2024-10-10_12h20.58.278,Visual Search,2024.2.1post4,60.076693805900796,2024-10-10 12h21.07.164025 +0530,
140,0,140,[0.4981481481481482],[0.014814814814814815],[1],[0],[0],[2.6680065002292395],['target'],140,0,140,0,289.50672950036824,,5,289.49698289996013,289.50672950036824,289.50672950036824,0.0146180996671319,292.16541730007157,[0.4981481481481482],[0.014814814814814815],[1],[0],[0],[2.6680065002292395],['target'],02,001,2024-10-10_12h20.58.278,Visual Search,2024.2.1post4,60.076693805900796,2024-10-10 12h21.07.164025 +0530,
141,0,141,[0.42962962962962964],[0.11666666666666667],[1],[0],[0],[2.076145499944687],['target'],141,0,141,0,292.2073979000561,,10,292.19369430001825,292.2073979000561,292.2073979000561,0.028109900187700987,294.27028009993955,[0.42962962962962964],[0.11666666666666667],[1],[0],[0],[2.076145499944687],['target'],02,001,2024-10-10_12h20.58.278,Visual Search,2024.2.1post4,60.076693805900796,2024-10-10 12h21.07.164025 +0530,
142,0,142,[0.08796296296296297],[0.225],[1],[0],[0],[1.5928239999338984],['target'],142,0,142,0,294.31304970011115,,10,294.29843740025535,294.31304970011115,294.31304970011115,0.02799810003489256,295.8917458001524,[0.08796296296296297],[0.225],[1],[0],[0],[1.5928239999338984],['target'],02,001,2024-10-10_12h20.58.278,Visual Search,2024.2.1post4,60.076693805900796,2024-10-10 12h21.07.164025 +0530,
143,0,143,[0.45740740740740743],[-0.026851851851851852],[1],[0],[0],[1.4418804999440908],['target'],143,0,143,0,295.9325796002522,,10,295.9196259002201,295.9325796002522,295.9325796002522,0.02772230003029108,297.3620016002096,[0.45740740740740743],[-0.026851851851851852],[1],[0],[0],[1.4418804999440908],['target'],02,001,2024-10-10_12h20.58.278,Visual Search,2024.2.1post4,60.076693805900796,2024-10-10 12h21.07.164025 +0530,
144,0,144,[-0.021296296296296296],[0.2796296296296296],[1],[0],[0],[1.5895069995895028],['target'],144,0,144,0,297.41345550026745,,10,297.3952112002298,297.41345550026745,297.41345550026745,0.033041299786418676,298.98518650000915,[-0.021296296296296296],[0.2796296296296296],[1],[0],[0],[1.5895069995895028],['target'],02,001,2024-10-10_12h20.58.278,Visual Search,2024.2.1post4,60.076693805900796,2024-10-10 12h21.07.164025 +0530,
145,0,145,[0.16018518518518518],[0.39537037037037037],[1],[0],[0],[1.3654028000310063],['target'],145,0,145,0,299.0176462000236,,5,299.0056372000836,299.0176462000236,299.0176462000236,0.020231899805366993,300.3715357002802,[0.16018518518518518],[0.39537037037037037],[1],[0],[0],[1.3654028000310063],['target'],02,001,2024-10-10_12h20.58.278,Visual Search,2024.2.1post4,60.076693805900796,2024-10-10 12h21.07.164025 +0530,
146,0,146,[0.4740740740740741],[0.17314814814814813],[1],[0],[0],[1.5319044003263116],['target'],146,0,146,0,300.40049230027944,,5,300.3893302003853,300.40049230027944,300.40049230027944,0.01767549989745021,301.9216650002636,[0.4740740740740741],[0.17314814814814813],[1],[0],[0],[1.5319044003263116],['target'],02,001,2024-10-10_12h20.58.278,Visual Search,2024.2.1post4,60.076693805900796,2024-10-10 12h21.07.164025 +0530,
147,0,147,[-0.17592592592592593],[0.25555555555555554],[1],[0],[0],[1.6849501999095082],['target'],147,0,147,0,301.9453575001098,,5,301.9360549999401,301.9453575001098,301.9453575001098,0.014257499948143959,303.62148880027235,[-0.17592592592592593],[0.25555555555555554],[1],[0],[0],[1.6849501999095082],['target'],02,001,2024-10-10_12h20.58.278,Visual Search,2024.2.1post4,60.076693805900796,2024-10-10 12h21.07.164025 +0530,
148,0,148,[-0.05648148148148148],[-0.1259259259259259],[1],[0],[0],[2.6187297999858856],['target'],148,0,148,0,303.6451892000623,,5,303.6360645000823,303.6451892000623,303.6451892000623,0.014392999932169914,306.2552038002759,[-0.05648148148148148],[-0.1259259259259259],[1],[0],[0],[2.6187297999858856],['target'],02,001,2024-10-10_12h20.58.278,Visual Search,2024.2.1post4,60.076693805900796,2024-10-10 12h21.07.164025 +0530,
149,0,149,[0.09814814814814815],[0.13333333333333333],[1],[0],[0],[1.5852834000252187],['target'],149,0,149,0,306.2786977002397,,5,306.26961650000885,306.2786977002397,306.2786977002397,0.014214999973773956,307.85532250022516,[0.09814814814814815],[0.13333333333333333],[1],[0],[0],[1.5852834000252187],['target'],02,001,2024-10-10_12h20.58.278,Visual Search,2024.2.1post4,60.076693805900796,2024-10-10 12h21.07.164025 +0530,
150,0,150,[-0.44166666666666665],[-0.21388888888888888],[1],[0],[0],[1.9499154998920858],['target'],150,0,150,0,307.88192890025675,,5,307.8721507000737,307.88192890025675,307.88192890025675,0.01666059996932745,309.82263550022617,[-0.44166666666666665],[-0.21388888888888888],[1],[0],[0],[1.9499154998920858],['target'],02,001,2024-10-10_12h20.58.278,Visual Search,2024.2.1post4,60.076693805900796,2024-10-10 12h21.07.164025 +0530,
151,0,151,[-0.023148148148148147],[-0.3685185185185185],[1],[0],[0],[2.3688022000715137],['target'],151,0,151,0,309.8459940003231,,5,309.83606080012396,309.8459940003231,309.8459940003231,0.01325449999421835,312.2054433003068,[-0.023148148148148147],[-0.3685185185185185],[1],[0],[0],[2.3688022000715137],['target'],02,001,2024-10-10_12h20.58.278,Visual Search,2024.2.1post4,60.076693805900796,2024-10-10 12h21.07.164025 +0530,
152,0,152,[-0.4388888888888889],[0.15],[1],[0],[0],[1.8396718995645642],['target'],152,0,152,0,312.24928090022877,,10,312.2361394003965,312.24928090022877,312.24928090022877,0.030420999974012375,314.0762386000715,[-0.4388888888888889],[0.15],[1],[0],[0],[1.8396718995645642],['target'],02,001,2024-10-10_12h20.58.278,Visual Search,2024.2.1post4,60.076693805900796,2024-10-10 12h21.07.164025 +0530,
153,0,153,[-0.012037037037037037],[-0.08333333333333333],[1],[0],[0],[4.267256199847907],['target'],153,0,153,0,314.1009667003527,,5,314.09162109997123,314.1009667003527,314.1009667003527,0.015252700075507164,318.35928850015625,[-0.012037037037037037],[-0.08333333333333333],[1],[0],[0],[4.267256199847907],['target'],02,001,2024-10-10_12h20.58.278,Visual Search,2024.2.1post4,60.076693805900796,2024-10-10 12h21.07.164025 +0530,
154,0,154,[-0.43703703703703706],[-0.08148148148148149],[1],[0],[0],[2.2574177999049425],['target'],154,0,154,0,318.4011888001114,,10,318.3887845999561,318.4011888001114,318.4011888001114,0.02937000012025237,320.6467105001211,[-0.43703703703703706],[-0.08148148148148149],[1],[0],[0],[2.2574177999049425],['target'],02,001,2024-10-10_12h20.58.278,Visual Search,2024.2.1post4,60.076693805900796,2024-10-10 12h21.07.164025 +0530,
155,0,155,[0.35462962962962963],[-0.2861111111111111],[1],[0],[0],[2.4352910998277366],['target'],155,0,155,0,320.67105000000447,,5,320.6611775001511,320.67105000000447,320.67105000000447,0.014309000223875046,323.0968804000877,[0.35462962962962963],[-0.2861111111111111],[1],[0],[0],[2.4352910998277366],['target'],02,001,2024-10-10_12h20.58.278,Visual Search,2024.2.1post4,60.076693805900796,2024-10-10 12h21.07.164025 +0530,
156,0,156,[0.08703703703703704],[0.31666666666666665],[1],[0],[0],[2.1850262000225484],['target'],156,0,156,0,323.1212413003668,,5,323.11123110027984,323.1212413003668,323.1212413003668,0.014224200043827295,325.29670340009034,[0.08703703703703704],[0.31666666666666665],[1],[0],[0],[2.1850262000225484],['target'],02,001,2024-10-10_12h20.58.278,Visual Search,2024.2.1post4,60.076693805900796,2024-10-10 12h21.07.164025 +0530,
157,0,157,[0.4444444444444444],[0.021296296296296296],[1],[0],[0],[1.7686128001660109],['target'],157,0,157,0,325.32040540035814,,5,325.31124950014055,325.32040540035814,325.32040540035814,0.014416000340133905,327.0803841003217,[0.4444444444444444],[0.021296296296296296],[1],[0],[0],[1.7686128001660109],['target'],02,001,2024-10-10_12h20.58.278,Visual Search,2024.2.1post4,60.076693805900796,2024-10-10 12h21.07.164025 +0530,
158,0,158,[0.2222222222222222],[-0.1],[1],[0],[0],[2.3071336997672915],['target'],158,0,158,0,327.1226503001526,,10,327.1098702000454,327.1226503001526,327.1226503001526,0.029354900121688843,329.4174146000296,[0.2222222222222222],[-0.1],[1],[0],[0],[2.3071336997672915],['target'],02,001,2024-10-10_12h20.58.278,Visual Search,2024.2.1post4,60.076693805900796,2024-10-10 12h21.07.164025 +0530,
159,0,159,[0.1824074074074074],[0.13796296296296295],[1],[0],[0],[1.8190558003261685],['target'],159,0,159,0,329.4412851999514,,5,329.431905800011,329.4412851999514,329.4412851999514,0.014303300064057112,331.25144210038707,[0.1824074074074074],[0.13796296296296295],[1],[0],[0],[1.8190558003261685],['target'],02,001,2024-10-10_12h20.58.278,Visual Search,2024.2.1post4,60.076693805900796,2024-10-10 12h21.07.164025 +0530,
160,0,160,[-0.2777777777777778],[-0.005555555555555556],[1],[0],[0],[1.970066299661994],['target'],160,0,160,0,331.29688369994983,,10,331.28458670014516,331.29688369994983,331.29688369994983,0.03297790000215173,333.25518300011754,[-0.2777777777777778],[-0.005555555555555556],[1],[0],[0],[1.970066299661994],['target'],02,001,2024-10-10_12h20.58.278,Visual Search,2024.2.1post4,60.076693805900796,2024-10-10 12h21.07.164025 +0530,
161,0,161,[0.13333333333333333],[-0.001851851851851852],[1],[0],[0],[1.9226266997866333],['target'],161,0,161,0,333.29924870003015,,10,333.2860848000273,333.29924870003015,333.29924870003015,0.030668599996715784,335.20914430031553,[0.13333333333333333],[-0.001851851851851852],[1],[0],[0],[1.9226266997866333],['target'],02,001,2024-10-10_12h20.58.278,Visual Search,2024.2.1post4,60.076693805900796,2024-10-10 12h21.07.164025 +0530,
162,0,162,[0.022222222222222223],[0.2212962962962963],[1],[0],[0],[2.018356100190431],['target'],162,0,162,0,335.23296440020204,,5,335.2235701000318,335.23296440020204,335.23296440020204,0.014250699896365404,337.24253030028194,[0.022222222222222223],[0.2212962962962963],[1],[0],[0],[2.018356100190431],['target'],02,001,2024-10-10_12h20.58.278,Visual Search,2024.2.1post4,60.076693805900796,2024-10-10 12h21.07.164025 +0530,
163,0,163,[-0.06666666666666667],[-0.19444444444444445],[1],[0],[0],[1.7690387000329792],['target'],163,0,163,0,337.26661950023845,,5,337.256761000026,337.26661950023845,337.26661950023845,0.01404079981148243,339.0262572001666,[-0.06666666666666667],[-0.19444444444444445],[1],[0],[0],[1.7690387000329792],['target'],02,001,2024-10-10_12h20.58.278,Visual Search,2024.2.1post4,60.076693805900796,2024-10-10 12h21.07.164025 +0530,
164,0,164,[-0.2722222222222222],[0.31851851851851853],[1],[0],[0],[1.7176381000317633],['target'],164,0,164,0,339.0499497000128,,5,339.0407942002639,339.0499497000128,339.0499497000128,0.014418699778616428,340.75881060026586,[-0.2722222222222222],[0.31851851851851853],[1],[0],[0],[1.7176381000317633],['target'],02,001,2024-10-10_12h20.58.278,Visual Search,2024.2.1post4,60.076693805900796,2024-10-10 12h21.07.164025 +0530,
165,0,165,[-0.23148148148148148],[-0.4740740740740741],[1],[0],[0],[2.85026240022853],['target'],165,0,165,0,340.7837136001326,,5,340.7746719000861,340.7837136001326,340.7837136001326,0.015743700321763754,343.6255954001099,[-0.23148148148148148],[-0.4740740740740741],[1],[0],[0],[2.85026240022853],['target'],02,001,2024-10-10_12h20.58.278,Visual Search,2024.2.1post4,60.076693805900796,2024-10-10 12h21.07.164025 +0530,
166,0,166,[-0.22685185185185186],[-0.21944444444444444],[1],[0],[0],[1.7336565000005066],['target'],166,0,166,0,343.65138950012624,,5,343.64156540017575,343.65138950012624,343.65138950012624,0.015759000089019537,345.3756033000536,[-0.22685185185185186],[-0.21944444444444444],[1],[0],[0],[1.7336565000005066],['target'],02,001,2024-10-10_12h20.58.278,Visual Search,2024.2.1post4,60.076693805900796,2024-10-10 12h21.07.164025 +0530,
167,0,167,[-0.39166666666666666],[-0.06018518518518518],[1],[0],[0],[1.8671222999691963],['target'],167,0,167,0,345.40073750028387,,5,345.39147579995915,345.40073750028387,345.40073750028387,0.015758400317281485,347.25908580003306,[-0.39166666666666666],[-0.06018518518518518],[1],[0],[0],[1.8671222999691963],['target'],02,001,2024-10-10_12h20.58.278,Visual Search,2024.2.1post4,60.076693805900796,2024-10-10 12h21.07.164025 +0530,
168,0,168,[0.4537037037037037],[-0.4222222222222222],[1],[0],[0],[2.9929984998889267],['target'],168,0,168,0,347.3002136000432,,10,347.2860305001959,347.3002136000432,347.3002136000432,0.02676799986511469,350.27947319997475,[0.4537037037037037],[-0.4222222222222222],[1],[0],[0],[2.9929984998889267],['target'],02,001,2024-10-10_12h20.58.278,Visual Search,2024.2.1post4,60.076693805900796,2024-10-10 12h21.07.164025 +0530,
169,0,169,[-0.21481481481481482],[0.06388888888888888],[1],[0],[0],[1.6329268999397755],['target'],169,0,169,0,350.3065142002888,,5,350.29669740004465,350.3065142002888,350.3065142002888,0.017028499860316515,351.93000520020723,[-0.21481481481481482],[0.06388888888888888],[1],[0],[0],[1.6329268999397755],['target'],02,001,2024-10-10_12h20.58.278,Visual Search,2024.2.1post4,60.076693805900796,2024-10-10 12h21.07.164025 +0530,
170,0,170,[-0.4583333333333333],[0.19166666666666668],[1],[0],[0],[1.8058172003366053],['target'],170,0,170,0,351.974283200223,,10,351.9606737000868,351.974283200223,351.974283200223,0.030515599995851517,353.7669653003104,[-0.4583333333333333],[0.19166666666666668],[1],[0],[0],[1.8058172003366053],['target'],02,001,2024-10-10_12h20.58.278,Visual Search,2024.2.1post4,60.076693805900796,2024-10-10 12h21.07.164025 +0530,
171,0,171,[-0.18796296296296297],[-0.2814814814814815],[1],[0],[0],[1.8854530001990497],['target'],171,0,171,0,353.7912105000578,,5,353.7813339000568,353.7912105000578,353.7912105000578,0.01420979993417859,355.66723230015486,[-0.18796296296296297],[-0.2814814814814815],[1],[0],[0],[1.8854530001990497],['target'],02,001,2024-10-10_12h20.58.278,Visual Search,2024.2.1post4,60.076693805900796,2024-10-10 12h21.07.164025 +0530,
172,0,172,[-0.38333333333333336],[0.15648148148148147],[1],[0],[0],[1.4662889000028372],['target'],172,0,172,0,355.69229440018535,,5,355.6835206001997,355.69229440018535,355.69229440018535,0.01616970030590892,357.1502515003085,[-0.38333333333333336],[0.15648148148148147],[1],[0],[0],[1.4662889000028372],['target'],02,001,2024-10-10_12h20.58.278,Visual Search,2024.2.1post4,60.076693805900796,2024-10-10 12h21.07.164025 +0530,
173,0,173,[0.20555555555555555],[-0.10092592592592593],[1],[0],[0],[2.711087599862367],['target'],173,0,173,0,357.1887544002384,,10,357.176434900146,357.1887544002384,357.1887544002384,0.02605939982458949,359.8879366000183,[0.20555555555555555],[-0.10092592592592593],[1],[0],[0],[2.711087599862367],['target'],02,001,2024-10-10_12h20.58.278,Visual Search,2024.2.1post4,60.076693805900796,2024-10-10 12h21.07.164025 +0530,
174,0,174,[0.33611111111111114],[0.22777777777777777],[1],[0],[0],[1.3775199996307492],['target'],174,0,174,0,359.9268186003901,,10,359.9140018001199,359.9268186003901,359.9268186003901,0.02590520028024912,361.29193209996447,[0.33611111111111114],[0.22777777777777777],[1],[0],[0],[1.3775199996307492],['target'],02,001,2024-10-10_12h20.58.278,Visual Search,2024.2.1post4,60.076693805900796,2024-10-10 12h21.07.164025 +0530,
175,0,175,[0.16111111111111112],[-0.44351851851851853],[1],[0],[0],[1.8353756996802986],['target'],175,0,175,0,361.31547489995137,,5,361.306366099976,361.31547489995137,361.31547489995137,0.014280100353062153,363.1422982001677,[0.16111111111111112],[-0.44351851851851853],[1],[0],[0],[1.8353756996802986],['target'],02,001,2024-10-10_12h20.58.278,Visual Search,2024.2.1post4,60.076693805900796,2024-10-10 12h21.07.164025 +0530,
176,0,176,[-0.3212962962962963],[-0.14444444444444443],[1],[0],[0],[2.4844855000264943],['target'],176,0,176,0,363.16661499999464,,5,363.15649470034987,363.16661499999464,363.16661499999464,0.014070600271224976,365.6417249003425,[-0.3212962962962963],[-0.14444444444444443],[1],[0],[0],[2.4844855000264943],['target'],02,001,2024-10-10_12h20.58.278,Visual Search,2024.2.1post4,60.076693805900796,2024-10-10 12h21.07.164025 +0530,
177,0,177,[0.08055555555555556],[0.4703703703703704],[1],[0],[0],[3.799374199938029],['target'],177,0,177,0,365.6676167999394,,5,365.6585099999793,365.6676167999394,365.6676167999394,0.016569499857723713,369.45826500002295,[0.08055555555555556],[0.4703703703703704],[1],[0],[0],[3.799374199938029],['target'],02,001,2024-10-10_12h20.58.278,Visual Search,2024.2.1post4,60.076693805900796,2024-10-10 12h21.07.164025 +0530,
178,0,178,[-0.2935185185185185],[-0.07314814814814814],[1],[0],[0],[1.89107930008322],['target'],178,0,178,0,369.5028210999444,,10,369.48812760040164,369.5028210999444,369.5028210999444,0.02974790008738637,371.37958590034395,[-0.2935185185185185],[-0.07314814814814814],[1],[0],[0],[1.89107930008322],['target'],02,001,2024-10-10_12h20.58.278,Visual Search,2024.2.1post4,60.076693805900796,2024-10-10 12h21.07.164025 +0530,
179,0,179,[0.2796296296296296],[-0.45185185185185184],[1],[0],[0],[2.2186774001456797],['target'],179,0,179,0,371.403708900325,,5,371.3935247999616,371.403708900325,371.403708900325,0.013778999913483858,373.612620100379,[0.2796296296296296],[-0.45185185185185184],[1],[0],[0],[2.2186774001456797],['target'],02,001,2024-10-10_12h20.58.278,Visual Search,2024.2.1post4,60.076693805900796,2024-10-10 12h21.07.164025 +0530,
180,0,180,[-0.2074074074074074],[0.2657407407407407],[1],[0],[0],[1.926233499776572],['target'],180,0,180,0,373.6543221003376,,10,373.63966670027,373.6543221003376,373.6543221003376,0.02692069998010993,375.56646330002695,[-0.2074074074074074],[0.2657407407407407],[1],[0],[0],[1.926233499776572],['target'],02,001,2024-10-10_12h20.58.278,Visual Search,2024.2.1post4,60.076693805900796,2024-10-10 12h21.07.164025 +0530,
181,0,181,"[-0.10648148148148148, 0.2861111111111111]","[-0.43703703703703706, -0.3111111111111111]","[1, 1]","[0, 0]","[0, 0]","[0.9921817001886666, 2.525338700041175]","[None, 'target']",181,0,181,0,375.60770629998296,,10,375.5944853001274,375.60770629998296,375.60770629998296,0.027864700183272362,378.12028620019555,"[-0.10648148148148148, 0.2861111111111111]","[-0.43703703703703706, -0.3111111111111111]","[1, 1]","[0, 0]","[0, 0]","[0.9921817001886666, 2.525338700041175]","[None, 'target']",02,001,2024-10-10_12h20.58.278,Visual Search,2024.2.1post4,60.076693805900796,2024-10-10 12h21.07.164025 +0530,
182,0,182,[0.05648148148148148],[0.32037037037037036],[1],[0],[0],[2.2661832999438047],['target'],182,0,182,0,378.1463574003428,,5,378.13748610019684,378.1463574003428,378.1463574003428,0.017016100231558084,380.4040753999725,[0.05648148148148148],[0.32037037037037036],[1],[0],[0],[2.2661832999438047],['target'],02,001,2024-10-10_12h20.58.278,Visual Search,2024.2.1post4,60.076693805900796,2024-10-10 12h21.07.164025 +0530,
183,0,183,[-0.4981481481481482],[-0.31666666666666665],[1],[0],[0],[2.6501376000232995],['target'],183,0,183,0,380.43118720036,,5,380.4206914999522,380.43118720036,380.43118720036,0.016477900091558695,383.07126020034775,[-0.4981481481481482],[-0.31666666666666665],[1],[0],[0],[2.6501376000232995],['target'],02,001,2024-10-10_12h20.58.278,Visual Search,2024.2.1post4,60.076693805900796,2024-10-10 12h21.07.164025 +0530,
184,0,184,[-0.16111111111111112],[-0.41388888888888886],[1],[0],[0],[2.636571600101888],['target'],184,0,184,0,383.1171012003906,,10,383.10441520018503,383.1171012003906,383.1171012003906,0.032988499850034714,385.7414053999819,[-0.16111111111111112],[-0.41388888888888886],[1],[0],[0],[2.636571600101888],['target'],02,001,2024-10-10_12h20.58.278,Visual Search,2024.2.1post4,60.076693805900796,2024-10-10 12h21.07.164025 +0530,
185,0,185,[-0.2759259259259259],[0.3787037037037037],[1],[0],[0],[1.9009055998176336],['target'],185,0,185,0,385.765544900205,,5,385.7564806002192,385.765544900205,385.765544900205,0.01490319985896349,387.6578780002892,[-0.2759259259259259],[0.3787037037037037],[1],[0],[0],[1.9009055998176336],['target'],02,001,2024-10-10_12h20.58.278,Visual Search,2024.2.1post4,60.076693805900796,2024-10-10 12h21.07.164025 +0530,
186,0,186,[-0.08055555555555556],[-0.4527777777777778],[1],[0],[0],[2.3856486002914608],['target'],186,0,186,0,387.68179489998147,,5,387.67266640020534,387.68179489998147,387.68179489998147,0.014670699834823608,390.05879259994254,[-0.08055555555555556],[-0.4527777777777778],[1],[0],[0],[2.3856486002914608],['target'],02,001,2024-10-10_12h20.58.278,Visual Search,2024.2.1post4,60.076693805900796,2024-10-10 12h21.07.164025 +0530,
187,0,187,[-0.013888888888888888],[0.08333333333333333],[1],[0],[0],[3.1089520999230444],['target'],187,0,187,0,390.0991158001125,,10,390.0862606000155,390.0991158001125,390.0991158001125,0.027279299683868885,393.19565390003845,[-0.013888888888888888],[0.08333333333333333],[1],[0],[0],[3.1089520999230444],['target'],02,001,2024-10-10_12h20.58.278,Visual Search,2024.2.1post4,60.076693805900796,2024-10-10 12h21.07.164025 +0530,
188,0,188,[-0.262037037037037],[-0.3888888888888889],[1],[0],[0],[3.5574317001737654],['target'],188,0,188,0,393.23898240039125,,10,393.22521480033174,393.23898240039125,393.23898240039125,0.02940999995917082,396.78306609997526,[-0.262037037037037],[-0.3888888888888889],[1],[0],[0],[3.5574317001737654],['target'],02,001,2024-10-10_12h20.58.278,Visual Search,2024.2.1post4,60.076693805900796,2024-10-10 12h21.07.164025 +0530,
189,0,189,[0.18425925925925926],[-0.07222222222222222],[1],[0],[0],[2.151807799935341],['target'],189,0,189,0,396.80644359998405,,5,396.7972152000293,396.80644359998405,396.80644359998405,0.013993199914693832,398.94948410009965,[0.18425925925925926],[-0.07222222222222222],[1],[0],[0],[2.151807799935341],['target'],02,001,2024-10-10_12h20.58.278,Visual Search,2024.2.1post4,60.076693805900796,2024-10-10 12h21.07.164025 +0530,
190,0,190,[-0.053703703703703705],[0.4537037037037037],[1],[0],[0],[2.790067099966109],['target'],190,0,190,0,398.99524820037186,,10,398.9802437000908,398.99524820037186,398.99524820037186,0.030632300302386284,401.7708054999821,[-0.053703703703703705],[0.4537037037037037],[1],[0],[0],[2.790067099966109],['target'],02,001,2024-10-10_12h20.58.278,Visual Search,2024.2.1post4,60.076693805900796,2024-10-10 12h21.07.164025 +0530,
191,0,191,[0.20833333333333334],[0.21666666666666667],[1],[0],[0],[2.000218099914491],['target'],191,0,191,0,401.79540940001607,,5,401.78634910006076,401.79540940001607,401.79540940001607,0.015333100222051144,403.7870776001364,[0.20833333333333334],[0.21666666666666667],[1],[0],[0],[2.000218099914491],['target'],02,001,2024-10-10_12h20.58.278,Visual Search,2024.2.1post4,60.076693805900796,2024-10-10 12h21.07.164025 +0530,
192,0,192,[-0.1287037037037037],[-0.35648148148148145],[1],[0],[0],[2.203455800190568],['target'],192,0,192,0,403.80936680035666,,5,403.80020630033687,403.80936680035666,403.80936680035666,0.012990799732506275,406.0040742000565,[-0.1287037037037037],[-0.35648148148148145],[1],[0],[0],[2.203455800190568],['target'],02,001,2024-10-10_12h20.58.278,Visual Search,2024.2.1post4,60.076693805900796,2024-10-10 12h21.07.164025 +0530,
193,0,193,[-0.49444444444444446],[-0.4305555555555556],[1],[0],[0],[3.3834051000885665],['target'],193,0,193,0,406.028751200065,,5,406.0197494002059,406.028751200065,406.028751200065,0.015546599868685007,409.40353660006076,[-0.49444444444444446],[-0.4305555555555556],[1],[0],[0],[3.3834051000885665],['target'],02,001,2024-10-10_12h20.58.278,Visual Search,2024.2.1post4,60.076693805900796,2024-10-10 12h21.07.164025 +0530,
194,0,194,[-0.30185185185185187],[-0.33240740740740743],[1],[0],[0],[4.484201699960977],['target'],194,0,194,0,409.4303637002595,,5,409.41925889998674,409.4303637002595,409.4303637002595,0.015597200021147728,413.90399030037224,[-0.30185185185185187],[-0.33240740740740743],[1],[0],[0],[4.484201699960977],['target'],02,001,2024-10-10_12h20.58.278,Visual Search,2024.2.1post4,60.076693805900796,2024-10-10 12h21.07.164025 +0530,
195,0,195,[0.03148148148148148],[0.21574074074074073],[1],[0],[0],[1.7426213999278843],['target'],195,0,195,0,413.94402729999274,,10,413.93133160006255,413.94402729999274,413.94402729999274,0.027223899960517883,415.674506300129,[0.03148148148148148],[0.21574074074074073],[1],[0],[0],[1.7426213999278843],['target'],02,001,2024-10-10_12h20.58.278,Visual Search,2024.2.1post4,60.076693805900796,2024-10-10 12h21.07.164025 +0530,
196,0,196,[0.2851851851851852],[-0.41944444444444445],[1],[0],[0],[1.8342693001031876],['target'],196,0,196,0,415.6995999002829,,5,415.6902454001829,415.6995999002829,415.6995999002829,0.015490199904888868,417.5250413999893,[0.2851851851851852],[-0.41944444444444445],[1],[0],[0],[1.8342693001031876],['target'],02,001,2024-10-10_12h20.58.278,Visual Search,2024.2.1post4,60.076693805900796,2024-10-10 12h21.07.164025 +0530,
197,0,197,[0.19166666666666668],[-0.17962962962962964],[1],[0],[0],[2.138580699916929],['target'],197,0,197,0,417.5704724001698,,10,417.5560590000823,417.5704724001698,417.5704724001698,0.030796800274401903,419.69501750031486,[0.19166666666666668],[-0.17962962962962964],[1],[0],[0],[2.138580699916929],['target'],02,001,2024-10-10_12h20.58.278,Visual Search,2024.2.1post4,60.076693805900796,2024-10-10 12h21.07.164025 +0530,
198,0,198,[0.3972222222222222],[-0.11666666666666667],[1],[0],[0],[1.4353666002862155],['target'],198,0,198,0,419.71808320004493,,5,419.7091221003793,419.71808320004493,419.71808320004493,0.013948800042271614,421.144915800076,[0.3972222222222222],[-0.11666666666666667],[1],[0],[0],[1.4353666002862155],['target'],02,001,2024-10-10_12h20.58.278,Visual Search,2024.2.1post4,60.076693805900796,2024-10-10 12h21.07.164025 +0530,
199,0,199,[-0.3],[-0.36574074074074076],[1],[0],[0],[1.8518036003224552],['target'],199,0,199,0,421.16896679997444,,5,421.15924410009757,421.16896679997444,421.16896679997444,0.014200600329786539,423.01161620020866,[-0.3],[-0.36574074074074076],[1],[0],[0],[1.8518036003224552],['target'],02,001,2024-10-10_12h20.58.278,Visual Search,2024.2.1post4,60.076693805900796,2024-10-10 12h21.07.164025 +0530,
