thisN,thisTrialN,thisRepN,mouse.x,mouse.y,mouse.leftButton,mouse.midButton,mouse.rightButton,mouse.time,mouse.clicked_name,trials.thisRepN,trials.thisTrialN,trials.thisN,trials.thisIndex,thisRow.t,notes,num_distr,trial.started,fixation.started,target.started,mouse.started,trial.stopped,trials.mouse.x,trials.mouse.y,trials.mouse.leftButton,trials.mouse.midButton,trials.mouse.rightButton,trials.mouse.time,trials.mouse.clicked_name,participant,session,date,expName,psychopyVersion,frameRate,expStart,
0,0,0,[0.21851851851851853],[-0.45092592592592595],[1],[0],[0],[2.175695599988103],['target'],0,0,0,0,0.04439439997076988,,5,0.030223299749195576,0.04439439997076988,0.04439439997076988,0.029948600102216005,2.206586299929768,[0.21851851851851853],[-0.45092592592592595],[1],[0],[0],[2.175695599988103],['target'],03,001,2024-10-10_12h31.17.803,Visual Search,2024.2.1post4,59.746935815766605,2024-10-10 12h33.49.874365 +0530,
1,0,1,[-0.3037037037037037],[0.05740740740740741],[1],[0],[0],[1.3005667002871633],['target'],1,0,1,0,2.2483286997303367,,10,2.2354653999209404,2.2483286997303367,2.2483286997303367,0.028614299837499857,3.5365078998729587,[-0.3037037037037037],[0.05740740740740741],[1],[0],[0],[1.3005667002871633],['target'],03,001,2024-10-10_12h31.17.803,Visual Search,2024.2.1post4,59.746935815766605,2024-10-10 12h33.49.874365 +0530,
2,0,2,[-0.016666666666666666],[-0.34444444444444444],[1],[0],[0],[2.208916099742055],['target'],2,0,2,0,3.578075499739498,,10,3.56513229990378,3.578075499739498,3.578075499739498,0.02840870013460517,5.774496899917722,[-0.016666666666666666],[-0.34444444444444444],[1],[0],[0],[2.208916099742055],['target'],03,001,2024-10-10_12h31.17.803,Visual Search,2024.2.1post4,59.746935815766605,2024-10-10 12h33.49.874365 +0530,
3,0,3,[-0.15462962962962962],[-0.06018518518518518],[1],[0],[0],[1.1318303002044559],['target'],3,0,3,0,5.8003655998036265,,5,5.791524899657816,5.8003655998036265,5.8003655998036265,0.016811999958008528,6.923763500060886,[-0.15462962962962962],[-0.06018518518518518],[1],[0],[0],[1.1318303002044559],['target'],03,001,2024-10-10_12h31.17.803,Visual Search,2024.2.1post4,59.746935815766605,2024-10-10 12h33.49.874365 +0530,
4,0,4,[-0.4212962962962963],[0.04537037037037037],[1],[0],[0],[1.0376158999279141],['target'],4,0,4,0,6.969418100081384,,10,6.956469799857587,6.969418100081384,6.969418100081384,0.0325225000269711,7.994507999625057,[-0.4212962962962963],[0.04537037037037037],[1],[0],[0],[1.0376158999279141],['target'],03,001,2024-10-10_12h31.17.803,Visual Search,2024.2.1post4,59.746935815766605,2024-10-10 12h33.49.874365 +0530,
5,0,5,[-0.2935185185185185],[0.2518518518518518],[1],[0],[0],[0.9191402997821569],['target'],5,0,5,0,8.017906500026584,,5,8.008607599884272,8.017906500026584,8.017906500026584,0.013874099589884281,8.928175000008196,[-0.2935185185185185],[0.2518518518518518],[1],[0],[0],[0.9191402997821569],['target'],03,001,2024-10-10_12h31.17.803,Visual Search,2024.2.1post4,59.746935815766605,2024-10-10 12h33.49.874365 +0530,
6,0,6,[0.026851851851851852],[-0.29814814814814816],[1],[0],[0],[1.5761709003709257],['target'],6,0,6,0,8.968995799776167,,10,8.955537899862975,8.968995799776167,8.968995799776167,0.027227799873799086,10.532100399956107,[0.026851851851851852],[-0.29814814814814816],[1],[0],[0],[1.5761709003709257],['target'],03,001,2024-10-10_12h31.17.803,Visual Search,2024.2.1post4,59.746935815766605,2024-10-10 12h33.49.874365 +0530,
7,0,7,[-0.3527777777777778],[-0.09259259259259259],[1],[0],[0],[0.9749598000198603],['target'],7,0,7,0,10.57524329982698,,10,10.560930999927223,10.57524329982698,10.57524329982698,0.028668500017374754,11.536696800030768,[-0.3527777777777778],[-0.09259259259259259],[1],[0],[0],[0.9749598000198603],['target'],03,001,2024-10-10_12h31.17.803,Visual Search,2024.2.1post4,59.746935815766605,2024-10-10 12h33.49.874365 +0530,
8,0,8,[0.4527777777777778],[0.21666666666666667],[1],[0],[0],[1.6518447999842465],['target'],8,0,8,0,11.560556699987501,,5,11.551159299910069,11.560556699987501,11.560556699987501,0.014198299963027239,13.2034549000673,[0.4527777777777778],[0.21666666666666667],[1],[0],[0],[1.6518447999842465],['target'],03,001,2024-10-10_12h31.17.803,Visual Search,2024.2.1post4,59.746935815766605,2024-10-10 12h33.49.874365 +0530,
9,0,9,[-0.28425925925925927],[0.26944444444444443],[1],[0],[0],[1.2510031000711024],['target'],9,0,9,0,13.227306299842894,,5,13.218262999784201,13.227306299842894,13.227306299842894,0.014670699834823608,14.469689900055528,[-0.28425925925925927],[0.26944444444444443],[1],[0],[0],[1.2510031000711024],['target'],03,001,2024-10-10_12h31.17.803,Visual Search,2024.2.1post4,59.746935815766605,2024-10-10 12h33.49.874365 +0530,
10,0,10,[-0.2361111111111111],[0.32037037037037036],[1],[0],[0],[1.4234094000421464],['target'],10,0,10,0,14.51303629996255,,10,14.499625399708748,14.51303629996255,14.51303629996255,0.029800799675285816,15.923582599963993,[-0.2361111111111111],[0.32037037037037036],[1],[0],[0],[1.4234094000421464],['target'],03,001,2024-10-10_12h31.17.803,Visual Search,2024.2.1post4,59.746935815766605,2024-10-10 12h33.49.874365 +0530,
11,0,11,[-0.3101851851851852],[-0.26481481481481484],[1],[0],[0],[6.6668948996812105],['target'],11,0,11,0,15.94968849979341,,5,15.93955359980464,15.94968849979341,15.94968849979341,0.01585640013217926,22.606785299722105,[-0.3101851851851852],[-0.26481481481481484],[1],[0],[0],[6.6668948996812105],['target'],03,001,2024-10-10_12h31.17.803,Visual Search,2024.2.1post4,59.746935815766605,2024-10-10 12h33.49.874365 +0530,
12,0,12,[0.3287037037037037],[0.4027777777777778],[1],[0],[0],[1.8363307998515666],['target'],12,0,12,0,22.629731599707156,,5,22.62033770000562,22.629731599707156,22.629731599707156,0.013418599963188171,24.457166200038046,[0.3287037037037037],[0.4027777777777778],[1],[0],[0],[1.8363307998515666],['target'],03,001,2024-10-10_12h31.17.803,Visual Search,2024.2.1post4,59.746935815766605,2024-10-10 12h33.49.874365 +0530,
13,0,13,[0.4462962962962963],[-0.014814814814814815],[1],[0],[0],[1.168791700154543],['target'],13,0,13,0,24.479951799847186,,5,24.47103750007227,24.479951799847186,24.479951799847186,0.013692199718207121,25.640252799727023,[0.4462962962962963],[-0.014814814814814815],[1],[0],[0],[1.168791700154543],['target'],03,001,2024-10-10_12h31.17.803,Visual Search,2024.2.1post4,59.746935815766605,2024-10-10 12h33.49.874365 +0530,
14,0,14,[-0.12777777777777777],[0.1361111111111111],[1],[0],[0],[1.5000591999851167],['target'],14,0,14,0,25.66600349964574,,5,25.655813599936664,25.66600349964574,25.66600349964574,0.015392200089991093,27.156401899643242,[-0.12777777777777777],[0.1361111111111111],[1],[0],[0],[1.5000591999851167],['target'],03,001,2024-10-10_12h31.17.803,Visual Search,2024.2.1post4,59.746935815766605,2024-10-10 12h33.49.874365 +0530,
15,0,15,[-0.35648148148148145],[-0.3592592592592593],[1],[0],[0],[1.7733570002019405],['target'],15,0,15,0,27.200116199906915,,10,27.187332399655133,27.200116199906915,27.200116199906915,0.030807099770754576,28.961179599631578,[-0.35648148148148145],[-0.3592592592592593],[1],[0],[0],[1.7733570002019405],['target'],03,001,2024-10-10_12h31.17.803,Visual Search,2024.2.1post4,59.746935815766605,2024-10-10 12h33.49.874365 +0530,
16,0,16,[0.24537037037037038],[0.06388888888888888],[1],[0],[0],[1.0427421000786126],['target'],16,0,16,0,29.000559899955988,,10,28.988039399962872,29.000559899955988,29.000559899955988,0.026698300149291754,30.031240900047123,[0.24537037037037038],[0.06388888888888888],[1],[0],[0],[1.0427421000786126],['target'],03,001,2024-10-10_12h31.17.803,Visual Search,2024.2.1post4,59.746935815766605,2024-10-10 12h33.49.874365 +0530,
17,0,17,[-0.175],[0.21666666666666667],[1],[0],[0],[1.0163527000695467],['target'],17,0,17,0,30.058444099966437,,5,30.0489392997697,30.058444099966437,30.058444099966437,0.01749469991773367,31.065723599866033,[-0.175],[0.21666666666666667],[1],[0],[0],[1.0163527000695467],['target'],03,001,2024-10-10_12h31.17.803,Visual Search,2024.2.1post4,59.746935815766605,2024-10-10 12h33.49.874365 +0530,
18,0,18,[0.4388888888888889],[-0.004629629629629629],[1],[0],[0],[1.119048499967903],['target'],18,0,18,0,31.08797449991107,,5,31.079158399719745,31.08797449991107,31.08797449991107,0.01330379955470562,32.19867909979075,[0.4388888888888889],[-0.004629629629629629],[1],[0],[0],[1.119048499967903],['target'],03,001,2024-10-10_12h31.17.803,Visual Search,2024.2.1post4,59.746935815766605,2024-10-10 12h33.49.874365 +0530,
19,0,19,[-0.2324074074074074],[-0.09907407407407408],[1],[0],[0],[1.0346456998959184],['target'],19,0,19,0,32.22363429982215,,5,32.21392859984189,32.22363429982215,32.22363429982215,0.015111299697309732,33.24907090002671,[-0.2324074074074074],[-0.09907407407407408],[1],[0],[0],[1.0346456998959184],['target'],03,001,2024-10-10_12h31.17.803,Visual Search,2024.2.1post4,59.746935815766605,2024-10-10 12h33.49.874365 +0530,
20,0,20,[-0.42685185185185187],[-0.17592592592592593],[1],[0],[0],[0.9321334999985993],['target'],20,0,20,0,33.27796350000426,,5,33.266656999941915,33.27796350000426,33.27796350000426,0.017444500233978033,34.19929639995098,[-0.42685185185185187],[-0.17592592592592593],[1],[0],[0],[0.9321334999985993],['target'],03,001,2024-10-10_12h31.17.803,Visual Search,2024.2.1post4,59.746935815766605,2024-10-10 12h33.49.874365 +0530,
21,0,21,[0.4166666666666667],[-0.14537037037037037],[1],[0],[0],[2.051317499950528],['target'],21,0,21,0,34.25858270004392,,10,34.238900899887085,34.25858270004392,34.25858270004392,0.03947089985013008,36.290609299670905,[0.4166666666666667],[-0.14537037037037037],[1],[0],[0],[2.051317499950528],['target'],03,001,2024-10-10_12h31.17.803,Visual Search,2024.2.1post4,59.746935815766605,2024-10-10 12h33.49.874365 +0530,
22,0,22,[-0.14444444444444443],[0.43333333333333335],[1],[0],[0],[2.218350399751216],['target'],22,0,22,0,36.314617400057614,,5,36.30542699992657,36.314617400057614,36.314617400057614,0.014602500014007092,38.524188899900764,[-0.14444444444444443],[0.43333333333333335],[1],[0],[0],[2.218350399751216],['target'],03,001,2024-10-10_12h31.17.803,Visual Search,2024.2.1post4,59.746935815766605,2024-10-10 12h33.49.874365 +0530,
23,0,23,[0.48518518518518516],[0.11296296296296296],[1],[0],[0],[1.0839068000204861],['target'],23,0,23,0,38.5487731997855,,5,38.53964599967003,38.5487731997855,38.5487731997855,0.015330699738115072,39.62403679965064,[0.48518518518518516],[0.11296296296296296],[1],[0],[0],[1.0839068000204861],['target'],03,001,2024-10-10_12h31.17.803,Visual Search,2024.2.1post4,59.746935815766605,2024-10-10 12h33.49.874365 +0530,
24,0,24,[0.21296296296296297],[0.26851851851851855],[1],[0],[0],[1.2104835999198258],['target'],24,0,24,0,39.66442979965359,,10,39.65074889967218,39.66442979965359,39.66442979965359,0.026500900276005268,40.8616482000798,[0.21296296296296297],[0.26851851851851855],[1],[0],[0],[1.2104835999198258],['target'],03,001,2024-10-10_12h31.17.803,Visual Search,2024.2.1post4,59.746935815766605,2024-10-10 12h33.49.874365 +0530,
25,0,25,[0.2074074074074074],[0.2564814814814815],[1],[0],[0],[0.7940488997846842],['target'],25,0,25,0,40.901612899731845,,10,40.88824789971113,40.901612899731845,40.901612899731845,0.026439199689775705,41.68271859968081,[0.2074074074074074],[0.2564814814814815],[1],[0],[0],[0.7940488997846842],['target'],03,001,2024-10-10_12h31.17.803,Visual Search,2024.2.1post4,59.746935815766605,2024-10-10 12h33.49.874365 +0530,
26,0,26,[-0.030555555555555555],[0.4166666666666667],[1],[0],[0],[1.1705640000291169],['target'],26,0,26,0,41.72819059994072,,10,41.71577399969101,41.72819059994072,41.72819059994072,0.032896900083869696,42.88675950001925,[-0.030555555555555555],[0.4166666666666667],[1],[0],[0],[1.1705640000291169],['target'],03,001,2024-10-10_12h31.17.803,Visual Search,2024.2.1post4,59.746935815766605,2024-10-10 12h33.49.874365 +0530,
27,0,27,[-0.1259259259259259],[0.04351851851851852],[1],[0],[0],[1.2892089998349547],['target'],27,0,27,0,42.930673900060356,,10,42.91753139998764,42.930673900060356,42.930673900060356,0.030553100164979696,44.20717229973525,[-0.1259259259259259],[0.04351851851851852],[1],[0],[0],[1.2892089998349547],['target'],03,001,2024-10-10_12h31.17.803,Visual Search,2024.2.1post4,59.746935815766605,2024-10-10 12h33.49.874365 +0530,
28,0,28,"[-0.19814814814814816, -0.18981481481481483]","[0.23333333333333334, 0.22592592592592592]","[1, 1]","[0, 0]","[0, 0]","[0.9779543997719884, 1.642948199994862]","[None, 'target']",28,0,28,0,44.24661159981042,,10,44.2337663997896,44.24661159981042,44.24661159981042,0.026352200191468,45.87734659994021,"[-0.19814814814814816, -0.18981481481481483]","[0.23333333333333334, 0.22592592592592592]","[1, 1]","[0, 0]","[0, 0]","[0.9779543997719884, 1.642948199994862]","[None, 'target']",03,001,2024-10-10_12h31.17.803,Visual Search,2024.2.1post4,59.746935815766605,2024-10-10 12h33.49.874365 +0530,
29,0,29,[0.022222222222222223],[0.21388888888888888],[1],[0],[0],[1.02212049998343],['target'],29,0,29,0,45.92290459992364,,10,45.91002119984478,45.92290459992364,45.92290459992364,0.032491200137883425,46.932624499779195,[0.022222222222222223],[0.21388888888888888],[1],[0],[0],[1.02212049998343],['target'],03,001,2024-10-10_12h31.17.803,Visual Search,2024.2.1post4,59.746935815766605,2024-10-10 12h33.49.874365 +0530,
30,0,30,[0.4212962962962963],[-0.3685185185185185],[1],[0],[0],[2.1568607999943197],['target'],30,0,30,0,46.97540199989453,,10,46.962595799937844,46.97540199989453,46.97540199989453,0.029756699688732624,49.11989949969575,[0.4212962962962963],[-0.3685185185185185],[1],[0],[0],[2.1568607999943197],['target'],03,001,2024-10-10_12h31.17.803,Visual Search,2024.2.1post4,59.746935815766605,2024-10-10 12h33.49.874365 +0530,
31,0,31,[0.03333333333333333],[-0.13055555555555556],[1],[0],[0],[1.91930599976331],['target'],31,0,31,0,49.14232259988785,,5,49.13351959967986,49.14232259988785,49.14232259988785,0.013456300366669893,51.053395399823785,[0.03333333333333333],[-0.13055555555555556],[1],[0],[0],[1.91930599976331],['target'],03,001,2024-10-10_12h31.17.803,Visual Search,2024.2.1post4,59.746935815766605,2024-10-10 12h33.49.874365 +0530,
32,0,32,[-0.24074074074074073],[0.27685185185185185],[1],[0],[0],[1.8051135996356606],['target'],32,0,32,0,51.09768769983202,,10,51.08489089971408,51.09768769983202,51.09768769983202,0.0313233002088964,52.890536999795586,[-0.24074074074074073],[0.27685185185185185],[1],[0],[0],[1.8051135996356606],['target'],03,001,2024-10-10_12h31.17.803,Visual Search,2024.2.1post4,59.746935815766605,2024-10-10 12h33.49.874365 +0530,
33,0,33,[0.37777777777777777],[-0.4787037037037037],[1],[0],[0],[1.690699900034815],['target'],33,0,33,0,52.933754299767315,,10,52.920558699872345,52.933754299767315,52.933754299767315,0.02985940035432577,54.61173760006204,[0.37777777777777777],[-0.4787037037037037],[1],[0],[0],[1.690699900034815],['target'],03,001,2024-10-10_12h31.17.803,Visual Search,2024.2.1post4,59.746935815766605,2024-10-10 12h33.49.874365 +0530,
34,0,34,[-0.4638888888888889],[0.021296296296296296],[1],[0],[0],[2.9037033999338746],['target'],34,0,34,0,54.65774199971929,,10,54.64453489985317,54.65774199971929,54.65774199971929,0.032587199937552214,57.54877100000158,[-0.4638888888888889],[0.021296296296296296],[1],[0],[0],[2.9037033999338746],['target'],03,001,2024-10-10_12h31.17.803,Visual Search,2024.2.1post4,59.746935815766605,2024-10-10 12h33.49.874365 +0530,
35,0,35,[0.025925925925925925],[0.32592592592592595],[1],[0],[0],[1.2583194999024272],['target'],35,0,35,0,57.59031579969451,,10,57.57754680002108,57.59031579969451,57.59031579969451,0.028590000234544277,58.83627739967778,[0.025925925925925925],[0.32592592592592595],[1],[0],[0],[1.2583194999024272],['target'],03,001,2024-10-10_12h31.17.803,Visual Search,2024.2.1post4,59.746935815766605,2024-10-10 12h33.49.874365 +0530,
36,0,36,[0.11851851851851852],[-0.17222222222222222],[1],[0],[0],[1.1867960002273321],['target'],36,0,36,0,58.85910560004413,,5,58.849980799946934,58.85910560004413,58.85910560004413,0.013536599930375814,60.037217599805444,[0.11851851851851852],[-0.17222222222222222],[1],[0],[0],[1.1867960002273321],['target'],03,001,2024-10-10_12h31.17.803,Visual Search,2024.2.1post4,59.746935815766605,2024-10-10 12h33.49.874365 +0530,
37,0,37,[-0.2111111111111111],[0.4527777777777778],[1],[0],[0],[1.351972300093621],['target'],37,0,37,0,60.0602639997378,,5,60.05078599974513,60.0602639997378,60.0602639997378,0.013434099964797497,61.403205699753016,[-0.2111111111111111],[0.4527777777777778],[1],[0],[0],[1.351972300093621],['target'],03,001,2024-10-10_12h31.17.803,Visual Search,2024.2.1post4,59.746935815766605,2024-10-10 12h33.49.874365 +0530,
38,0,38,[0.3611111111111111],[0.36574074074074076],[1],[0],[0],[1.1545899999327958],['target'],38,0,38,0,61.449652099981904,,10,61.43619389971718,61.449652099981904,61.449652099981904,0.03281159978359938,62.59119929978624,[0.3611111111111111],[0.36574074074074076],[1],[0],[0],[1.1545899999327958],['target'],03,001,2024-10-10_12h31.17.803,Visual Search,2024.2.1post4,59.746935815766605,2024-10-10 12h33.49.874365 +0530,
39,0,39,[0.44351851851851853],[0.05277777777777778],[1],[0],[0],[1.4559041000902653],['target'],39,0,39,0,62.634784899652004,,10,62.62091659987345,62.634784899652004,62.634784899652004,0.029554199893027544,64.07726749964058,[0.44351851851851853],[0.05277777777777778],[1],[0],[0],[1.4559041000902653],['target'],03,001,2024-10-10_12h31.17.803,Visual Search,2024.2.1post4,59.746935815766605,2024-10-10 12h33.49.874365 +0530,
40,0,40,[0.27685185185185185],[0.11203703703703703],[1],[0],[0],[1.0943942000158131],['target'],40,0,40,0,64.11695409985259,,10,64.10406959988177,64.11695409985259,64.11695409985259,0.026560300029814243,65.19887109985575,[0.27685185185185185],[0.11203703703703703],[1],[0],[0],[1.0943942000158131],['target'],03,001,2024-10-10_12h31.17.803,Visual Search,2024.2.1post4,59.746935815766605,2024-10-10 12h33.49.874365 +0530,
41,0,41,[0.4787037037037037],[-0.002777777777777778],[1],[0],[0],[1.1329010999761522],['target'],41,0,41,0,65.224800999742,,5,65.21552559966221,65.224800999742,65.224800999742,0.016498100012540817,66.34895749995485,[0.4787037037037037],[-0.002777777777777778],[1],[0],[0],[1.1329010999761522],['target'],03,001,2024-10-10_12h31.17.803,Visual Search,2024.2.1post4,59.746935815766605,2024-10-10 12h33.49.874365 +0530,
42,0,42,[0.2796296296296296],[0.43703703703703706],[1],[0],[0],[1.1157819000072777],['target'],42,0,42,0,66.37501739989966,,5,66.36573599977419,66.37501739989966,66.37501739989966,0.01658400008454919,67.48194349976256,[0.2796296296296296],[0.43703703703703706],[1],[0],[0],[1.1157819000072777],['target'],03,001,2024-10-10_12h31.17.803,Visual Search,2024.2.1post4,59.746935815766605,2024-10-10 12h33.49.874365 +0530,
43,0,43,[-0.3527777777777778],[0.42962962962962964],[1],[0],[0],[2.074181200005114],['target'],43,0,43,0,67.52618160005659,,10,67.51172690000385,67.52618160005659,67.52618160005659,0.02965879999101162,69.58636579988524,[-0.3527777777777778],[0.42962962962962964],[1],[0],[0],[2.074181200005114],['target'],03,001,2024-10-10_12h31.17.803,Visual Search,2024.2.1post4,59.746935815766605,2024-10-10 12h33.49.874365 +0530,
44,0,44,[-0.4305555555555556],[0.2222222222222222],[1],[0],[0],[1.084951899945736],['target'],44,0,44,0,69.6105168000795,,5,69.60084269987419,69.6105168000795,69.6105168000795,0.014265000354498625,70.68621600000188,[-0.4305555555555556],[0.2222222222222222],[1],[0],[0],[1.084951899945736],['target'],03,001,2024-10-10_12h31.17.803,Visual Search,2024.2.1post4,59.746935815766605,2024-10-10 12h33.49.874365 +0530,
45,0,45,[-0.2361111111111111],[-0.3277777777777778],[1],[0],[0],[2.1563868997618556],['target'],45,0,45,0,70.7293843999505,,10,70.71643339982256,70.7293843999505,70.7293843999505,0.030092999804764986,72.87324569979683,[-0.2361111111111111],[-0.3277777777777778],[1],[0],[0],[2.1563868997618556],['target'],03,001,2024-10-10_12h31.17.803,Visual Search,2024.2.1post4,59.746935815766605,2024-10-10 12h33.49.874365 +0530,
46,0,46,[0.23703703703703705],[0.06574074074074074],[1],[0],[0],[1.1429966003634036],['target'],46,0,46,0,72.91352010006085,,10,72.90082519967109,72.91352010006085,72.91352010006085,0.027420800179243088,74.04427199997008,[0.23703703703703705],[0.06574074074074074],[1],[0],[0],[1.1429966003634036],['target'],03,001,2024-10-10_12h31.17.803,Visual Search,2024.2.1post4,59.746935815766605,2024-10-10 12h33.49.874365 +0530,
47,0,47,[0.08888888888888889],[-0.3509259259259259],[1],[0],[0],[2.9887812002561986],['target'],47,0,47,0,74.0880974996835,,10,74.07559879962355,74.0880974996835,74.0880974996835,0.031075199600309134,77.06480659963563,[0.08888888888888889],[-0.3509259259259259],[1],[0],[0],[2.9887812002561986],['target'],03,001,2024-10-10_12h31.17.803,Visual Search,2024.2.1post4,59.746935815766605,2024-10-10 12h33.49.874365 +0530,
48,0,48,[-0.11944444444444445],[-0.44907407407407407],[1],[0],[0],[2.0569378999061882],['target'],48,0,48,0,77.10953389992937,,10,77.09560399968177,77.10953389992937,77.10953389992937,0.03064460027962923,79.15298349969089,[-0.11944444444444445],[-0.44907407407407407],[1],[0],[0],[2.0569378999061882],['target'],03,001,2024-10-10_12h31.17.803,Visual Search,2024.2.1post4,59.746935815766605,2024-10-10 12h33.49.874365 +0530,
49,0,49,[0.06944444444444445],[-0.41759259259259257],[1],[0],[0],[1.091133600100875],['target'],49,0,49,0,79.194689899683,,10,79.18217669986188,79.194689899683,79.194689899683,0.0289686000905931,80.27375699998811,[0.06944444444444445],[-0.41759259259259257],[1],[0],[0],[1.091133600100875],['target'],03,001,2024-10-10_12h31.17.803,Visual Search,2024.2.1post4,59.746935815766605,2024-10-10 12h33.49.874365 +0530,
50,0,50,"[-0.008333333333333333, 0.021296296296296296]","[0.47314814814814815, 0.49722222222222223]","[1, 1]","[0, 0]","[0, 0]","[2.0034004002809525, 2.6685037999413908]","[None, 'target']",50,0,50,0,80.29763239994645,,5,80.28689910005778,80.29763239994645,80.29763239994645,0.012980199884623289,82.95583690004423,"[-0.008333333333333333, 0.021296296296296296]","[0.47314814814814815, 0.49722222222222223]","[1, 1]","[0, 0]","[0, 0]","[2.0034004002809525, 2.6685037999413908]","[None, 'target']",03,001,2024-10-10_12h31.17.803,Visual Search,2024.2.1post4,59.746935815766605,2024-10-10 12h33.49.874365 +0530,
51,0,51,[0.026851851851851852],[-0.3861111111111111],[1],[0],[0],[2.1565638002939522],['target'],51,0,51,0,83.00257779983804,,10,82.98738180007786,83.00257779983804,83.00257779983804,0.031388900242745876,85.14437149977311,[0.026851851851851852],[-0.3861111111111111],[1],[0],[0],[2.1565638002939522],['target'],03,001,2024-10-10_12h31.17.803,Visual Search,2024.2.1post4,59.746935815766605,2024-10-10 12h33.49.874365 +0530,
52,0,52,"[0.14351851851851852, 0.13703703703703704]","[0.38796296296296295, 0.3888888888888889]","[1, 1]","[0, 0]","[0, 0]","[1.3685576999559999, 2.0844976999796927]","[None, 'target']",52,0,52,0,85.16829459974542,,5,85.15893989987671,85.16829459974542,85.16829459974542,0.014416699763387442,87.2438705000095,"[0.14351851851851852, 0.13703703703703704]","[0.38796296296296295, 0.3888888888888889]","[1, 1]","[0, 0]","[0, 0]","[1.3685576999559999, 2.0844976999796927]","[None, 'target']",03,001,2024-10-10_12h31.17.803,Visual Search,2024.2.1post4,59.746935815766605,2024-10-10 12h33.49.874365 +0530,
53,0,53,[0.06296296296296296],[-0.1111111111111111],[1],[0],[0],[1.7935167998075485],['target'],53,0,53,0,87.28313669981435,,10,87.27049669995904,87.28313669981435,87.28313669981435,0.026471899822354317,89.06443169992417,[0.06296296296296296],[-0.1111111111111111],[1],[0],[0],[1.7935167998075485],['target'],03,001,2024-10-10_12h31.17.803,Visual Search,2024.2.1post4,59.746935815766605,2024-10-10 12h33.49.874365 +0530,
54,0,54,[-0.33425925925925926],[0.08425925925925926],[1],[0],[0],[1.0841169999912381],['target'],54,0,54,0,89.08902759989724,,5,89.0804560999386,89.08902759989724,89.08902759989724,0.015874700155109167,90.16511829989031,[-0.33425925925925926],[0.08425925925925926],[1],[0],[0],[1.0841169999912381],['target'],03,001,2024-10-10_12h31.17.803,Visual Search,2024.2.1post4,59.746935815766605,2024-10-10 12h33.49.874365 +0530,
55,0,55,[0.05555555555555555],[0.35555555555555557],[1],[0],[0],[1.2586066001094878],['target'],55,0,55,0,90.20785730006173,,10,90.19313769973814,90.20785730006173,90.20785730006173,0.0278563997708261,91.4521870999597,[0.05555555555555555],[0.35555555555555557],[1],[0],[0],[1.2586066001094878],['target'],03,001,2024-10-10_12h31.17.803,Visual Search,2024.2.1post4,59.746935815766605,2024-10-10 12h33.49.874365 +0530,
56,0,56,[-0.2574074074074074],[-0.1574074074074074],[1],[0],[0],[1.8690443001687527],['target'],56,0,56,0,91.4754977999255,,5,91.46649149991572,91.4754977999255,91.4754977999255,0.014100400265306234,93.33608199981973,[-0.2574074074074074],[-0.1574074074074074],[1],[0],[0],[1.8690443001687527],['target'],03,001,2024-10-10_12h31.17.803,Visual Search,2024.2.1post4,59.746935815766605,2024-10-10 12h33.49.874365 +0530,
57,0,57,[0.15185185185185185],[0.45555555555555555],[1],[0],[0],[1.367292100097984],['target'],57,0,57,0,93.361501599662,,5,93.3518272000365,93.361501599662,93.361501599662,0.01558909984305501,94.71953029977158,[0.15185185185185185],[0.45555555555555555],[1],[0],[0],[1.367292100097984],['target'],03,001,2024-10-10_12h31.17.803,Visual Search,2024.2.1post4,59.746935815766605,2024-10-10 12h33.49.874365 +0530,
58,0,58,[0.011111111111111112],[0.262037037037037],[1],[0],[0],[0.9989024000242352],['target'],58,0,58,0,94.74639749992639,,5,94.73631259985268,94.74639749992639,94.74639749992639,0.01662210002541542,95.73559969989583,[0.011111111111111112],[0.262037037037037],[1],[0],[0],[0.9989024000242352],['target'],03,001,2024-10-10_12h31.17.803,Visual Search,2024.2.1post4,59.746935815766605,2024-10-10 12h33.49.874365 +0530,
59,0,59,[0.025925925925925925],[-0.29814814814814816],[1],[0],[0],[1.1686904998496175],['target'],59,0,59,0,95.75876489980146,,5,95.74975769966841,95.75876489980146,95.75876489980146,0.014031999744474888,96.91891760006547,[0.025925925925925925],[-0.29814814814814816],[1],[0],[0],[1.1686904998496175],['target'],03,001,2024-10-10_12h31.17.803,Visual Search,2024.2.1post4,59.746935815766605,2024-10-10 12h33.49.874365 +0530,
60,0,60,"[-0.287962962962963, -0.3138888888888889]","[0.4675925925925926, 0.4777777777777778]","[1, 1]","[0, 0]","[0, 0]","[1.62455670023337, 2.2749032001011074]","[None, 'target']",60,0,60,0,96.95984430005774,,10,96.94719949970022,96.95984430005774,96.95984430005774,0.028161800000816584,99.22275289986283,"[-0.287962962962963, -0.3138888888888889]","[0.4675925925925926, 0.4777777777777778]","[1, 1]","[0, 0]","[0, 0]","[1.62455670023337, 2.2749032001011074]","[None, 'target']",03,001,2024-10-10_12h31.17.803,Visual Search,2024.2.1post4,59.746935815766605,2024-10-10 12h33.49.874365 +0530,
61,0,61,[0.45],[0.5],[1],[0],[0],[1.716516099870205],['target'],61,0,61,0,99.24923229962587,,5,99.23973919963464,99.24923229962587,99.24923229962587,0.016810200177133083,100.95666649984196,[0.45],[0.5],[1],[0],[0],[1.716516099870205],['target'],03,001,2024-10-10_12h31.17.803,Visual Search,2024.2.1post4,59.746935815766605,2024-10-10 12h33.49.874365 +0530,
62,0,62,[-0.022222222222222223],[0.31296296296296294],[1],[0],[0],[1.0375001998618245],['target'],62,0,62,0,100.97939509991556,,5,100.9702951000072,100.97939509991556,100.97939509991556,0.013498400337994099,102.00826219981536,[-0.022222222222222223],[0.31296296296296294],[1],[0],[0],[1.0375001998618245],['target'],03,001,2024-10-10_12h31.17.803,Visual Search,2024.2.1post4,59.746935815766605,2024-10-10 12h33.49.874365 +0530,
63,0,63,[0.075],[0.14351851851851852],[1],[0],[0],[0.9220433998852968],['target'],63,0,63,0,102.05332889966667,,10,102.03824270004407,102.05332889966667,102.05332889966667,0.02981750015169382,102.96067849965766,[0.075],[0.14351851851851852],[1],[0],[0],[0.9220433998852968],['target'],03,001,2024-10-10_12h31.17.803,Visual Search,2024.2.1post4,59.746935815766605,2024-10-10 12h33.49.874365 +0530,
64,0,64,[0.3074074074074074],[0.028703703703703703],[1],[0],[0],[1.035153599921614],['target'],64,0,64,0,102.98286559991539,,5,102.97448439989239,102.98286559991539,102.98286559991539,0.013647600077092648,104.01012039976195,[0.3074074074074074],[0.028703703703703703],[1],[0],[0],[1.035153599921614],['target'],03,001,2024-10-10_12h31.17.803,Visual Search,2024.2.1post4,59.746935815766605,2024-10-10 12h33.49.874365 +0530,
65,0,65,[0.15462962962962962],[0.037037037037037035],[1],[0],[0],[1.0847061001695693],['target'],65,0,65,0,104.03536390000954,,5,104.02538680005819,104.03536390000954,104.03536390000954,0.014971199911087751,105.110513899941,[0.15462962962962962],[0.037037037037037035],[1],[0],[0],[1.0847061001695693],['target'],03,001,2024-10-10_12h31.17.803,Visual Search,2024.2.1post4,59.746935815766605,2024-10-10 12h33.49.874365 +0530,
66,0,66,[-0.262037037037037],[-0.2833333333333333],[1],[0],[0],[2.3749890998005867],['target'],66,0,66,0,105.15242679975927,,10,105.13949680002406,105.15242679975927,105.15242679975927,0.02886249963194132,107.5149258999154,[-0.262037037037037],[-0.2833333333333333],[1],[0],[0],[2.3749890998005867],['target'],03,001,2024-10-10_12h31.17.803,Visual Search,2024.2.1post4,59.746935815766605,2024-10-10 12h33.49.874365 +0530,
67,0,67,[0.4222222222222222],[0.19537037037037036],[1],[0],[0],[1.984815699979663],['target'],67,0,67,0,107.5391130996868,,5,107.52883620001376,107.5391130996868,107.5391130996868,0.013757099863141775,109.51410319982097,[0.4222222222222222],[0.19537037037037036],[1],[0],[0],[1.984815699979663],['target'],03,001,2024-10-10_12h31.17.803,Visual Search,2024.2.1post4,59.746935815766605,2024-10-10 12h33.49.874365 +0530,
68,0,68,[-0.42962962962962964],[-0.3111111111111111],[1],[0],[0],[1.4532667002640665],['target'],68,0,68,0,109.53674219967797,,5,109.52767809992656,109.53674219967797,109.53674219967797,0.013443700037896633,110.9813759997487,[-0.42962962962962964],[-0.3111111111111111],[1],[0],[0],[1.4532667002640665],['target'],03,001,2024-10-10_12h31.17.803,Visual Search,2024.2.1post4,59.746935815766605,2024-10-10 12h33.49.874365 +0530,
69,0,69,[-0.2740740740740741],[-0.47962962962962963],[1],[0],[0],[1.6506240000016987],['target'],69,0,69,0,111.00581829994917,,5,110.9966302998364,111.00581829994917,111.00581829994917,0.01513200020417571,112.64775669993833,[-0.2740740740740741],[-0.47962962962962963],[1],[0],[0],[1.6506240000016987],['target'],03,001,2024-10-10_12h31.17.803,Visual Search,2024.2.1post4,59.746935815766605,2024-10-10 12h33.49.874365 +0530,
70,0,70,[0.025925925925925925],[-0.46296296296296297],[1],[0],[0],[2.8605826003476977],['target'],70,0,70,0,112.6878158999607,,10,112.67462239973247,112.6878158999607,112.6878158999607,0.026643100194633007,115.5356526998803,[0.025925925925925925],[-0.46296296296296297],[1],[0],[0],[2.8605826003476977],['target'],03,001,2024-10-10_12h31.17.803,Visual Search,2024.2.1post4,59.746935815766605,2024-10-10 12h33.49.874365 +0530,
71,0,71,[-0.04722222222222222],[-0.44907407407407407],[1],[0],[0],[1.8496997002512217],['target'],71,0,71,0,115.56114359991625,,5,115.55231489986181,115.56114359991625,115.56114359991625,0.016457899939268827,117.40248299995437,[-0.04722222222222222],[-0.44907407407407407],[1],[0],[0],[1.8496997002512217],['target'],03,001,2024-10-10_12h31.17.803,Visual Search,2024.2.1post4,59.746935815766605,2024-10-10 12h33.49.874365 +0530,
72,0,72,[0.36944444444444446],[0.5],[1],[0],[0],[3.2701252000406384],['target'],72,0,72,0,117.44799100002274,,10,117.43544239969924,117.44799100002274,117.44799100002274,0.03280310006812215,120.70602109981701,[0.36944444444444446],[0.5],[1],[0],[0],[3.2701252000406384],['target'],03,001,2024-10-10_12h31.17.803,Visual Search,2024.2.1post4,59.746935815766605,2024-10-10 12h33.49.874365 +0530,
73,0,73,[0.02962962962962963],[-0.28888888888888886],[1],[0],[0],[2.0438868002966046],['target'],73,0,73,0,120.74602729966864,,10,120.73278119973838,120.74602729966864,120.74602729966864,0.026600500103086233,122.77716569975019,[0.02962962962962963],[-0.28888888888888886],[1],[0],[0],[2.0438868002966046],['target'],03,001,2024-10-10_12h31.17.803,Visual Search,2024.2.1post4,59.746935815766605,2024-10-10 12h33.49.874365 +0530,
74,0,74,[0.39351851851851855],[0.013888888888888888],[1],[0],[0],[1.3928763000294566],['target'],74,0,74,0,122.81737359985709,,10,122.80460549984127,122.81737359985709,122.81737359985709,0.027221099939197302,124.19794479990378,[0.39351851851851855],[0.013888888888888888],[1],[0],[0],[1.3928763000294566],['target'],03,001,2024-10-10_12h31.17.803,Visual Search,2024.2.1post4,59.746935815766605,2024-10-10 12h33.49.874365 +0530,
75,0,75,"[0.362962962962963, 0.35555555555555557]","[-0.025925925925925925, -0.025925925925925925]","[1, 1]","[0, 0]","[0, 0]","[0.8700526999309659, 1.5687644998542964]","[None, 'target']",75,0,75,0,124.22098679980263,,5,124.21131809987128,124.22098679980263,124.22098679980263,0.01321269990876317,125.78052080003545,"[0.362962962962963, 0.35555555555555557]","[-0.025925925925925925, -0.025925925925925925]","[1, 1]","[0, 0]","[0, 0]","[0.8700526999309659, 1.5687644998542964]","[None, 'target']",03,001,2024-10-10_12h31.17.803,Visual Search,2024.2.1post4,59.746935815766605,2024-10-10 12h33.49.874365 +0530,
76,0,76,[-0.12685185185185185],[0.4111111111111111],[1],[0],[0],[1.5697787003591657],['target'],76,0,76,0,125.80292619997635,,5,125.79442699998617,125.80292619997635,125.80292619997635,0.013745100237429142,127.36464449996129,[-0.12685185185185185],[0.4111111111111111],[1],[0],[0],[1.5697787003591657],['target'],03,001,2024-10-10_12h31.17.803,Visual Search,2024.2.1post4,59.746935815766605,2024-10-10 12h33.49.874365 +0530,
77,0,77,[-0.2601851851851852],[0.2851851851851852],[1],[0],[0],[1.4069583998061717],['target'],77,0,77,0,127.40701549965888,,10,127.39440489979461,127.40701549965888,127.40701549965888,0.02963109966367483,128.8019167999737,[-0.2601851851851852],[0.2851851851851852],[1],[0],[0],[1.4069583998061717],['target'],03,001,2024-10-10_12h31.17.803,Visual Search,2024.2.1post4,59.746935815766605,2024-10-10 12h33.49.874365 +0530,
78,0,78,[0.38796296296296295],[0.18518518518518517],[1],[0],[0],[1.6428045998327434],['target'],78,0,78,0,128.84402259998024,,10,128.82958009978756,128.84402259998024,128.84402259998024,0.027439600322395563,130.47299019992352,[0.38796296296296295],[0.18518518518518517],[1],[0],[0],[1.6428045998327434],['target'],03,001,2024-10-10_12h31.17.803,Visual Search,2024.2.1post4,59.746935815766605,2024-10-10 12h33.49.874365 +0530,
79,0,79,[0.1175925925925926],[-0.11574074074074074],[1],[0],[0],[1.4686161000281572],['target'],79,0,79,0,130.49568059993908,,5,130.4867743998766,130.49568059993908,130.49568059993908,0.013532799668610096,131.955912000034,[0.1175925925925926],[-0.11574074074074074],[1],[0],[0],[1.4686161000281572],['target'],03,001,2024-10-10_12h31.17.803,Visual Search,2024.2.1post4,59.746935815766605,2024-10-10 12h33.49.874365 +0530,
80,0,80,[0.014814814814814815],[0.13148148148148148],[1],[0],[0],[1.0362260001711547],['target'],80,0,80,0,131.9787224996835,,5,131.96956159966066,131.9787224996835,131.9787224996835,0.013459799811244011,133.00625479966402,[0.014814814814814815],[0.13148148148148148],[1],[0],[0],[1.0362260001711547],['target'],03,001,2024-10-10_12h31.17.803,Visual Search,2024.2.1post4,59.746935815766605,2024-10-10 12h33.49.874365 +0530,
81,0,81,[-0.11574074074074074],[-0.10185185185185185],[1],[0],[0],[2.275894599966705],['target'],81,0,81,0,133.04693919979036,,10,133.03351199999452,133.04693919979036,133.04693919979036,0.027129499707370996,135.309800399933,[-0.11574074074074074],[-0.10185185185185185],[1],[0],[0],[2.275894599966705],['target'],03,001,2024-10-10_12h31.17.803,Visual Search,2024.2.1post4,59.746935815766605,2024-10-10 12h33.49.874365 +0530,
82,0,82,[0.2638888888888889],[0.021296296296296296],[1],[0],[0],[1.1898358999751508],['target'],82,0,82,0,135.35234309965745,,10,135.33983059972525,135.35234309965745,135.35234309965745,0.02987149963155389,136.53021249966696,[0.2638888888888889],[0.021296296296296296],[1],[0],[0],[1.1898358999751508],['target'],03,001,2024-10-10_12h31.17.803,Visual Search,2024.2.1post4,59.746935815766605,2024-10-10 12h33.49.874365 +0530,
83,0,83,[-0.4064814814814815],[-0.06296296296296296],[1],[0],[0],[1.5604483000934124],['target'],83,0,83,0,136.57186689972878,,10,136.5578179997392,136.57186689972878,136.57186689972878,0.027368399780243635,138.1187275000848,[-0.4064814814814815],[-0.06296296296296296],[1],[0],[0],[1.5604483000934124],['target'],03,001,2024-10-10_12h31.17.803,Visual Search,2024.2.1post4,59.746935815766605,2024-10-10 12h33.49.874365 +0530,
84,0,84,[-0.07962962962962963],[0.4064814814814815],[1],[0],[0],[1.726694599725306],['target'],84,0,84,0,138.15877719968557,,10,138.1454444997944,138.15877719968557,138.15877719968557,0.026558700017631054,139.87255849968642,[-0.07962962962962963],[0.4064814814814815],[1],[0],[0],[1.726694599725306],['target'],03,001,2024-10-10_12h31.17.803,Visual Search,2024.2.1post4,59.746935815766605,2024-10-10 12h33.49.874365 +0530,
85,0,85,[0.3907407407407407],[-0.006481481481481481],[1],[0],[0],[1.3770106001757085],['target'],85,0,85,0,139.9129764996469,,10,139.8992658997886,139.9129764996469,139.9129764996469,0.02655100030824542,141.27679009968415,[0.3907407407407407],[-0.006481481481481481],[1],[0],[0],[1.3770106001757085],['target'],03,001,2024-10-10_12h31.17.803,Visual Search,2024.2.1post4,59.746935815766605,2024-10-10 12h33.49.874365 +0530,
86,0,86,[-0.2601851851851852],[0.04351851851851852],[1],[0],[0],[1.9442151999101043],['target'],86,0,86,0,141.31641969969496,,10,141.30270149977878,141.31641969969496,141.31641969969496,0.02573069976642728,143.24741679988801,[-0.2601851851851852],[0.04351851851851852],[1],[0],[0],[1.9442151999101043],['target'],03,001,2024-10-10_12h31.17.803,Visual Search,2024.2.1post4,59.746935815766605,2024-10-10 12h33.49.874365 +0530,
87,0,87,[-0.45092592592592595],[0.021296296296296296],[1],[0],[0],[1.0029234001412988],['target'],87,0,87,0,143.2698462996632,,5,143.26067359978333,143.2698462996632,143.2698462996632,0.013092000037431717,144.264024999924,[-0.45092592592592595],[0.021296296296296296],[1],[0],[0],[1.0029234001412988],['target'],03,001,2024-10-10_12h31.17.803,Visual Search,2024.2.1post4,59.746935815766605,2024-10-10 12h33.49.874365 +0530,
88,0,88,[-0.03148148148148148],[-0.4],[1],[0],[0],[1.6741089997813106],['target'],88,0,88,0,144.30781979998574,,10,144.29359909985214,144.30781979998574,144.30781979998574,0.02944539999589324,145.96810639975592,[-0.03148148148148148],[-0.4],[1],[0],[0],[1.6741089997813106],['target'],03,001,2024-10-10_12h31.17.803,Visual Search,2024.2.1post4,59.746935815766605,2024-10-10 12h33.49.874365 +0530,
89,0,89,[0.3416666666666667],[0.3990740740740741],[1],[0],[0],[1.4848813000135124],['target'],89,0,89,0,145.99255049973726,,5,145.9830522998236,145.99255049973726,145.99255049973726,0.014798100106418133,147.46846959972754,[0.3416666666666667],[0.3990740740740741],[1],[0],[0],[1.4848813000135124],['target'],03,001,2024-10-10_12h31.17.803,Visual Search,2024.2.1post4,59.746935815766605,2024-10-10 12h33.49.874365 +0530,
90,0,90,[-0.08148148148148149],[0.43333333333333335],[1],[0],[0],[1.1162839997559786],['target'],90,0,90,0,147.49449819978327,,5,147.4850462996401,147.49449819978327,147.49449819978327,0.016392599791288376,148.60185059998184,[-0.08148148148148149],[0.43333333333333335],[1],[0],[0],[1.1162839997559786],['target'],03,001,2024-10-10_12h31.17.803,Visual Search,2024.2.1post4,59.746935815766605,2024-10-10 12h33.49.874365 +0530,
91,0,91,[0.05185185185185185],[0.29814814814814816],[1],[0],[0],[1.0756713999435306],['target'],91,0,91,0,148.6438146000728,,10,148.63001249963418,148.6438146000728,148.6438146000728,0.028007900342345238,149.70621349988505,[0.05185185185185185],[0.29814814814814816],[1],[0],[0],[1.0756713999435306],['target'],03,001,2024-10-10_12h31.17.803,Visual Search,2024.2.1post4,59.746935815766605,2024-10-10 12h33.49.874365 +0530,
92,0,92,[0.31666666666666665],[-0.44722222222222224],[1],[0],[0],[1.8421189999207854],['target'],92,0,92,0,149.7485587997362,,10,149.73385589988902,149.7485587997362,149.7485587997362,0.027369400020688772,151.5764718996361,[0.31666666666666665],[-0.44722222222222224],[1],[0],[0],[1.8421189999207854],['target'],03,001,2024-10-10_12h31.17.803,Visual Search,2024.2.1post4,59.746935815766605,2024-10-10 12h33.49.874365 +0530,
93,0,93,[-0.16944444444444445],[0.16296296296296298],[1],[0],[0],[1.8576123998500407],['target'],93,0,93,0,151.61836540000513,,10,151.6058673998341,151.61836540000513,151.61836540000513,0.029235399793833494,153.46394239971414,[-0.16944444444444445],[0.16296296296296298],[1],[0],[0],[1.8576123998500407],['target'],03,001,2024-10-10_12h31.17.803,Visual Search,2024.2.1post4,59.746935815766605,2024-10-10 12h33.49.874365 +0530,
94,0,94,"[-0.10092592592592593, -0.046296296296296294]","[0.1675925925925926, 0.1787037037037037]","[1, 1]","[0, 0]","[0, 0]","[0.8511985996738076, 1.51707849977538]","[None, 'target']",94,0,94,0,153.4887649999,,5,153.47928670002148,153.4887649999,153.4887649999,0.01519149960950017,154.99677959969267,"[-0.10092592592592593, -0.046296296296296294]","[0.1675925925925926, 0.1787037037037037]","[1, 1]","[0, 0]","[0, 0]","[0.8511985996738076, 1.51707849977538]","[None, 'target']",03,001,2024-10-10_12h31.17.803,Visual Search,2024.2.1post4,59.746935815766605,2024-10-10 12h33.49.874365 +0530,
95,0,95,[0.15833333333333333],[0.3638888888888889],[1],[0],[0],[1.444260099902749],['target'],95,0,95,0,155.03580809989944,,10,155.0235139997676,155.03580809989944,155.03580809989944,0.02657580003142357,156.4682398000732,[0.15833333333333333],[0.3638888888888889],[1],[0],[0],[1.444260099902749],['target'],03,001,2024-10-10_12h31.17.803,Visual Search,2024.2.1post4,59.746935815766605,2024-10-10 12h33.49.874365 +0530,
96,0,96,[-0.2101851851851852],[0.21666666666666667],[1],[0],[0],[1.0697245998308063],['target'],96,0,96,0,156.49201510008425,,5,156.48175389971584,156.49201510008425,156.49201510008425,0.013278700411319733,157.55203810008243,[-0.2101851851851852],[0.21666666666666667],[1],[0],[0],[1.0697245998308063],['target'],03,001,2024-10-10_12h31.17.803,Visual Search,2024.2.1post4,59.746935815766605,2024-10-10 12h33.49.874365 +0530,
97,0,97,[-0.012037037037037037],[-0.17592592592592593],[1],[0],[0],[1.0497930999845266],['target'],97,0,97,0,157.5765318996273,,5,157.5674016997218,157.5765318996273,157.5765318996273,0.015201999805867672,158.61760480003431,[-0.012037037037037037],[-0.17592592592592593],[1],[0],[0],[1.0497930999845266],['target'],03,001,2024-10-10_12h31.17.803,Visual Search,2024.2.1post4,59.746935815766605,2024-10-10 12h33.49.874365 +0530,
98,0,98,[0.18333333333333332],[0.12962962962962962],[1],[0],[0],[1.443033100105822],['target'],98,0,98,0,158.65865419991314,,10,158.64581649983302,158.65865419991314,158.65865419991314,0.028047800064086914,160.08936579991132,[0.18333333333333332],[0.12962962962962962],[1],[0],[0],[1.443033100105822],['target'],03,001,2024-10-10_12h31.17.803,Visual Search,2024.2.1post4,59.746935815766605,2024-10-10 12h33.49.874365 +0530,
99,0,99,[0.4981481481481482],[-0.11574074074074074],[1],[0],[0],[1.1868761000223458],['target'],99,0,99,0,160.13554439973086,,10,160.12251670006663,160.13554439973086,160.13554439973086,0.032954900059849024,161.30982229998335,[0.4981481481481482],[-0.11574074074074074],[1],[0],[0],[1.1868761000223458],['target'],03,001,2024-10-10_12h31.17.803,Visual Search,2024.2.1post4,59.746935815766605,2024-10-10 12h33.49.874365 +0530,
100,0,100,[-0.11481481481481481],[0.13425925925925927],[1],[0],[0],[1.1858502998948097],['target'],100,0,100,0,161.3328724000603,,5,161.32347599975765,161.3328724000603,161.3328724000603,0.01349719986319542,162.5098870000802,[-0.11481481481481481],[0.13425925925925927],[1],[0],[0],[1.1858502998948097],['target'],03,001,2024-10-10_12h31.17.803,Visual Search,2024.2.1post4,59.746935815766605,2024-10-10 12h33.49.874365 +0530,
101,0,101,[0.018518518518518517],[0.49907407407407406],[1],[0],[0],[5.136991299688816],['target'],101,0,101,0,162.55751879978925,,10,162.5426110997796,162.55751879978925,162.55751879978925,0.032534100115299225,167.6801310996525,[0.018518518518518517],[0.49907407407407406],[1],[0],[0],[5.136991299688816],['target'],03,001,2024-10-10_12h31.17.803,Visual Search,2024.2.1post4,59.746935815766605,2024-10-10 12h33.49.874365 +0530,
102,0,102,[0.3851851851851852],[0.20925925925925926],[1],[0],[0],[1.135583700146526],['target'],102,0,102,0,167.7034966996871,,5,167.6943087996915,167.7034966996871,167.7034966996871,0.014014699961990118,168.83056559972465,[0.3851851851851852],[0.20925925925925926],[1],[0],[0],[1.135583700146526],['target'],03,001,2024-10-10_12h31.17.803,Visual Search,2024.2.1post4,59.746935815766605,2024-10-10 12h33.49.874365 +0530,
103,0,103,[0.4046296296296296],[-0.028703703703703703],[1],[0],[0],[1.0358326002024114],['target'],103,0,103,0,168.85326089989394,,5,168.84427889995277,168.85326089989394,168.85326089989394,0.013556099962443113,169.88066660007462,[0.4046296296296296],[-0.028703703703703703],[1],[0],[0],[1.0358326002024114],['target'],03,001,2024-10-10_12h31.17.803,Visual Search,2024.2.1post4,59.746935815766605,2024-10-10 12h33.49.874365 +0530,
104,0,104,[0.08703703703703704],[0.2657407407407407],[1],[0],[0],[1.143479600083083],['target'],104,0,104,0,169.92001459980384,,10,169.90722789987922,169.92001459980384,169.92001459980384,0.026421499904245138,171.05123490002006,[0.08703703703703704],[0.2657407407407407],[1],[0],[0],[1.143479600083083],['target'],03,001,2024-10-10_12h31.17.803,Visual Search,2024.2.1post4,59.746935815766605,2024-10-10 12h33.49.874365 +0530,
105,0,105,[0.33425925925925926],[-0.3527777777777778],[1],[0],[0],[1.8693908997811377],['target'],105,0,105,0,171.09369480004534,,10,171.08125869976357,171.09369480004534,171.09369480004534,0.029869399964809418,172.95105319982395,[0.33425925925925926],[-0.3527777777777778],[1],[0],[0],[1.8693908997811377],['target'],03,001,2024-10-10_12h31.17.803,Visual Search,2024.2.1post4,59.746935815766605,2024-10-10 12h33.49.874365 +0530,
106,0,106,[-0.17314814814814813],[0.17314814814814813],[1],[0],[0],[1.335500399582088],['target'],106,0,106,0,172.9733849996701,,5,172.96483419975266,172.9733849996701,172.9733849996701,0.013621199876070023,174.3007684997283,[-0.17314814814814813],[0.17314814814814813],[1],[0],[0],[1.335500399582088],['target'],03,001,2024-10-10_12h31.17.803,Visual Search,2024.2.1post4,59.746935815766605,2024-10-10 12h33.49.874365 +0530,
107,0,107,[0.387037037037037],[-0.4111111111111111],[1],[0],[0],[1.668705299962312],['target'],107,0,107,0,174.3238973999396,,5,174.31506799999624,174.3238973999396,174.3238973999396,0.01417119987308979,175.98419839981943,[0.387037037037037],[-0.4111111111111111],[1],[0],[0],[1.668705299962312],['target'],03,001,2024-10-10_12h31.17.803,Visual Search,2024.2.1post4,59.746935815766605,2024-10-10 12h33.49.874365 +0530,
108,0,108,[0.18518518518518517],[0.2222222222222222],[1],[0],[0],[1.3525055004283786],['target'],108,0,108,0,176.00683879991993,,5,175.99758479977027,176.00683879991993,176.00683879991993,0.013257700018584728,177.35056079970673,[0.18518518518518517],[0.2222222222222222],[1],[0],[0],[1.3525055004283786],['target'],03,001,2024-10-10_12h31.17.803,Visual Search,2024.2.1post4,59.746935815766605,2024-10-10 12h33.49.874365 +0530,
109,0,109,[0.1814814814814815],[-0.044444444444444446],[1],[0],[0],[1.3536375002004206],['target'],109,0,109,0,177.3728380999528,,5,177.36368649965152,177.3728380999528,177.3728380999528,0.012990700080990791,178.71793949976563,[0.1814814814814815],[-0.044444444444444446],[1],[0],[0],[1.3536375002004206],['target'],03,001,2024-10-10_12h31.17.803,Visual Search,2024.2.1post4,59.746935815766605,2024-10-10 12h33.49.874365 +0530,
110,0,110,[0.4675925925925926],[-0.462037037037037],[1],[0],[0],[3.160156900063157],['target'],110,0,110,0,178.7586149997078,,10,178.7443578997627,178.7586149997078,178.7586149997078,0.026221200358122587,181.904949599877,[0.4675925925925926],[-0.462037037037037],[1],[0],[0],[3.160156900063157],['target'],03,001,2024-10-10_12h31.17.803,Visual Search,2024.2.1post4,59.746935815766605,2024-10-10 12h33.49.874365 +0530,
111,0,111,[-0.1925925925925926],[0.487962962962963],[1],[0],[0],[2.093368799891323],['target'],111,0,111,0,181.94517909968272,,10,181.9325160998851,181.94517909968272,181.94517909968272,0.027416800148785114,184.02631910005584,[-0.1925925925925926],[0.487962962962963],[1],[0],[0],[2.093368799891323],['target'],03,001,2024-10-10_12h31.17.803,Visual Search,2024.2.1post4,59.746935815766605,2024-10-10 12h33.49.874365 +0530,
112,0,112,[-0.46111111111111114],[0.04537037037037037],[1],[0],[0],[1.2684893999248743],['target'],112,0,112,0,184.0497562997043,,5,184.0400509997271,184.0497562997043,184.0497562997043,0.01351729966700077,185.30903419991955,[-0.46111111111111114],[0.04537037037037037],[1],[0],[0],[1.2684893999248743],['target'],03,001,2024-10-10_12h31.17.803,Visual Search,2024.2.1post4,59.746935815766605,2024-10-10 12h33.49.874365 +0530,
113,0,113,[0.3333333333333333],[0.4546296296296296],[1],[0],[0],[1.7410655999556184],['target'],113,0,113,0,185.35201789997518,,10,185.33855619980022,185.35201789997518,185.35201789997518,0.029232099652290344,187.08014129986987,[0.3333333333333333],[0.4546296296296296],[1],[0],[0],[1.7410655999556184],['target'],03,001,2024-10-10_12h31.17.803,Visual Search,2024.2.1post4,59.746935815766605,2024-10-10 12h33.49.874365 +0530,
114,0,114,[0.06018518518518518],[0.08888888888888889],[1],[0],[0],[1.3524845000356436],['target'],114,0,114,0,187.10276550007984,,5,187.09394859988242,187.10276550007984,187.10276550007984,0.013641600031405687,188.44688869966194,[0.06018518518518518],[0.08888888888888889],[1],[0],[0],[1.3524845000356436],['target'],03,001,2024-10-10_12h31.17.803,Visual Search,2024.2.1post4,59.746935815766605,2024-10-10 12h33.49.874365 +0530,
115,0,115,[0.3055555555555556],[-0.2722222222222222],[1],[0],[0],[1.2907154001295567],['target'],115,0,115,0,188.48862609965727,,10,188.47596239997074,188.48862609965727,188.48862609965727,0.028914500027894974,189.7671109000221,[0.3055555555555556],[-0.2722222222222222],[1],[0],[0],[1.2907154001295567],['target'],03,001,2024-10-10_12h31.17.803,Visual Search,2024.2.1post4,59.746935815766605,2024-10-10 12h33.49.874365 +0530,
116,0,116,[0.33240740740740743],[-0.000925925925925926],[1],[0],[0],[1.049574099946767],['target'],116,0,116,0,189.79512530006468,,5,189.78437389992177,189.79512530006468,189.79512530006468,0.017073200084269047,190.83442969992757,[0.33240740740740743],[-0.000925925925925926],[1],[0],[0],[1.049574099946767],['target'],03,001,2024-10-10_12h31.17.803,Visual Search,2024.2.1post4,59.746935815766605,2024-10-10 12h33.49.874365 +0530,
117,0,117,[0.14722222222222223],[0.325],[1],[0],[0],[0.9673933000303805],['target'],117,0,117,0,190.85852839984,,5,190.84915989963338,190.85852839984,190.85852839984,0.014529999811202288,191.81704859994352,[0.14722222222222223],[0.325],[1],[0],[0],[0.9673933000303805],['target'],03,001,2024-10-10_12h31.17.803,Visual Search,2024.2.1post4,59.746935815766605,2024-10-10 12h33.49.874365 +0530,
118,0,118,[-0.1925925925925926],[-0.275],[1],[0],[0],[1.319275800138712],['target'],118,0,118,0,191.84107470000163,,5,191.83145579975098,191.84107470000163,191.84107470000163,0.014285200275480747,193.1511550997384,[-0.1925925925925926],[-0.275],[1],[0],[0],[1.319275800138712],['target'],03,001,2024-10-10_12h31.17.803,Visual Search,2024.2.1post4,59.746935815766605,2024-10-10 12h33.49.874365 +0530,
119,0,119,[-0.16111111111111112],[0.45555555555555555],[1],[0],[0],[1.2185545000247657],['target'],119,0,119,0,193.1740867998451,,5,193.16497289994732,193.1740867998451,193.1740867998451,0.013641100376844406,194.38396149966866,[-0.16111111111111112],[0.45555555555555555],[1],[0],[0],[1.2185545000247657],['target'],03,001,2024-10-10_12h31.17.803,Visual Search,2024.2.1post4,59.746935815766605,2024-10-10 12h33.49.874365 +0530,
120,0,120,[-0.2101851851851852],[0.287962962962963],[1],[0],[0],[1.019399099983275],['target'],120,0,120,0,194.40706239966676,,5,194.39748319983482,194.40706239966676,194.40706239966676,0.013394500128924847,195.41732169967145,[-0.2101851851851852],[0.287962962962963],[1],[0],[0],[1.019399099983275],['target'],03,001,2024-10-10_12h31.17.803,Visual Search,2024.2.1post4,59.746935815766605,2024-10-10 12h33.49.874365 +0530,
121,0,121,[0.22870370370370371],[0.21666666666666667],[1],[0],[0],[1.3439582996070385],['target'],121,0,121,0,195.4559951000847,,10,195.4434203999117,195.4559951000847,195.4559951000847,0.02598119992762804,196.7878132998012,[0.22870370370370371],[0.21666666666666667],[1],[0],[0],[1.3439582996070385],['target'],03,001,2024-10-10_12h31.17.803,Visual Search,2024.2.1post4,59.746935815766605,2024-10-10 12h33.49.874365 +0530,
122,0,122,[0.20462962962962963],[-0.33796296296296297],[1],[0],[0],[1.7035747999325395],['target'],122,0,122,0,196.8346690000035,,10,196.82162539986894,196.8346690000035,196.8346690000035,0.03360799979418516,198.52565439976752,[0.20462962962962963],[-0.33796296296296297],[1],[0],[0],[1.7035747999325395],['target'],03,001,2024-10-10_12h31.17.803,Visual Search,2024.2.1post4,59.746935815766605,2024-10-10 12h33.49.874365 +0530,
123,0,123,[-0.1],[0.4564814814814815],[1],[0],[0],[1.0948842000216246],['target'],123,0,123,0,198.56540199974552,,10,198.55151319969445,198.56540199974552,198.56540199974552,0.0257040997967124,199.6468821996823,[-0.1],[0.4564814814814815],[1],[0],[0],[1.0948842000216246],['target'],03,001,2024-10-10_12h31.17.803,Visual Search,2024.2.1post4,59.746935815766605,2024-10-10 12h33.49.874365 +0530,
124,0,124,[-0.262037037037037],[0.3074074074074074],[1],[0],[0],[1.3945095003582537],['target'],124,0,124,0,199.68570749973878,,10,199.67275109980255,199.68570749973878,199.68570749973878,0.02570650028064847,201.06770200002939,[-0.262037037037037],[0.3074074074074074],[1],[0],[0],[1.3945095003582537],['target'],03,001,2024-10-10_12h31.17.803,Visual Search,2024.2.1post4,59.746935815766605,2024-10-10 12h33.49.874365 +0530,
125,0,125,[-0.2537037037037037],[-0.42777777777777776],[1],[0],[0],[2.5923144998960197],['target'],125,0,125,0,201.10833860002458,,10,201.09538619965315,201.10833860002458,201.10833860002458,0.027532500214874744,203.688206799794,[-0.2537037037037037],[-0.42777777777777776],[1],[0],[0],[2.5923144998960197],['target'],03,001,2024-10-10_12h31.17.803,Visual Search,2024.2.1post4,59.746935815766605,2024-10-10 12h33.49.874365 +0530,
126,0,126,[-0.35648148148148145],[-0.31574074074074077],[1],[0],[0],[1.0995674999430776],['target'],126,0,126,0,203.7151124998927,,5,203.70430949982256,203.7151124998927,203.7151124998927,0.015891899820417166,204.80429170001298,[-0.35648148148148145],[-0.31574074074074077],[1],[0],[0],[1.0995674999430776],['target'],03,001,2024-10-10_12h31.17.803,Visual Search,2024.2.1post4,59.746935815766605,2024-10-10 12h33.49.874365 +0530,
127,0,127,[0.009259259259259259],[-0.13240740740740742],[1],[0],[0],[1.0749146002344787],['target'],127,0,127,0,204.84640859998763,,10,204.83338279975578,204.84640859998763,204.84640859998763,0.028923700097948313,205.908724299632,[0.009259259259259259],[-0.13240740740740742],[1],[0],[0],[1.0749146002344787],['target'],03,001,2024-10-10_12h31.17.803,Visual Search,2024.2.1post4,59.746935815766605,2024-10-10 12h33.49.874365 +0530,
128,0,128,[0.1648148148148148],[-0.05462962962962963],[1],[0],[0],[1.2003492000512779],['target'],128,0,128,0,205.9349962999113,,5,205.9249334000051,205.9349962999113,205.9349962999113,0.016060700174421072,207.12569959973916,[0.1648148148148148],[-0.05462962962962963],[1],[0],[0],[1.2003492000512779],['target'],03,001,2024-10-10_12h31.17.803,Visual Search,2024.2.1post4,59.746935815766605,2024-10-10 12h33.49.874365 +0530,
129,0,129,[-0.4425925925925926],[-0.32685185185185184],[1],[0],[0],[1.6514008999802172],['target'],129,0,129,0,207.14900649990886,,5,207.13980709994212,207.14900649990886,207.14900649990886,0.013931500259786844,208.79162540007383,[-0.4425925925925926],[-0.32685185185185184],[1],[0],[0],[1.6514008999802172],['target'],03,001,2024-10-10_12h31.17.803,Visual Search,2024.2.1post4,59.746935815766605,2024-10-10 12h33.49.874365 +0530,
130,0,130,[0.25555555555555554],[0.06018518518518518],[1],[0],[0],[1.409758200403303],['target'],130,0,130,0,208.83407419966534,,10,208.81912950007245,208.83407419966534,208.83407419966534,0.027378099970519543,210.2294290997088,[0.25555555555555554],[0.06018518518518518],[1],[0],[0],[1.409758200403303],['target'],03,001,2024-10-10_12h31.17.803,Visual Search,2024.2.1post4,59.746935815766605,2024-10-10 12h33.49.874365 +0530,
131,0,131,[0.024074074074074074],[0.19166666666666668],[1],[0],[0],[2.658930900041014],['target'],131,0,131,0,210.27027729991823,,10,210.25726899970323,210.27027729991823,210.27027729991823,0.027681900188326836,212.91660870006308,[0.024074074074074074],[0.19166666666666668],[1],[0],[0],[2.658930900041014],['target'],03,001,2024-10-10_12h31.17.803,Visual Search,2024.2.1post4,59.746935815766605,2024-10-10 12h33.49.874365 +0530,
132,0,132,[-0.2037037037037037],[0.45925925925925926],[1],[0],[0],[2.49398439982906],['target'],132,0,132,0,212.95667620003223,,10,212.94348509982228,212.95667620003223,212.95667620003223,0.026661299634724855,215.43795509962365,[-0.2037037037037037],[0.45925925925925926],[1],[0],[0],[2.49398439982906],['target'],03,001,2024-10-10_12h31.17.803,Visual Search,2024.2.1post4,59.746935815766605,2024-10-10 12h33.49.874365 +0530,
133,0,133,[-0.4027777777777778],[-0.37037037037037035],[1],[0],[0],[2.781743499916047],['target'],133,0,133,0,215.4652140000835,,5,215.45556989964098,215.4652140000835,215.4652140000835,0.01742189982905984,218.23784539988264,[-0.4027777777777778],[-0.37037037037037035],[1],[0],[0],[2.781743499916047],['target'],03,001,2024-10-10_12h31.17.803,Visual Search,2024.2.1post4,59.746935815766605,2024-10-10 12h33.49.874365 +0530,
134,0,134,"[0.37962962962962965, 0.42777777777777776]","[-0.24814814814814815, -0.2388888888888889]","[1, 1]","[0, 0]","[0, 0]","[1.807099999859929, 2.606904299929738]","[None, 'target']",134,0,134,0,218.28077449975535,,10,218.2677464997396,218.28077449975535,218.28077449975535,0.029681299813091755,220.8750807000324,"[0.37962962962962965, 0.42777777777777776]","[-0.24814814814814815, -0.2388888888888889]","[1, 1]","[0, 0]","[0, 0]","[1.807099999859929, 2.606904299929738]","[None, 'target']",03,001,2024-10-10_12h31.17.803,Visual Search,2024.2.1post4,59.746935815766605,2024-10-10 12h33.49.874365 +0530,
135,0,135,[-0.1361111111111111],[-0.4703703703703704],[1],[0],[0],[1.6538754999637604],['target'],135,0,135,0,220.9211744996719,,10,220.90862309979275,220.9211744996719,220.9211744996719,0.03336870018392801,222.5629109996371,[-0.1361111111111111],[-0.4703703703703704],[1],[0],[0],[1.6538754999637604],['target'],03,001,2024-10-10_12h31.17.803,Visual Search,2024.2.1post4,59.746935815766605,2024-10-10 12h33.49.874365 +0530,
136,0,136,[0.46111111111111114],[-0.2037037037037037],[1],[0],[0],[1.502570599783212],['target'],136,0,136,0,222.58515959978104,,5,222.57605580007657,222.58515959978104,222.58515959978104,0.012986599933356047,224.07907619979233,[0.46111111111111114],[-0.2037037037037037],[1],[0],[0],[1.502570599783212],['target'],03,001,2024-10-10_12h31.17.803,Visual Search,2024.2.1post4,59.746935815766605,2024-10-10 12h33.49.874365 +0530,
137,0,137,[0.45925925925925926],[0.10185185185185185],[1],[0],[0],[1.1692963000386953],['target'],137,0,137,0,224.10319359973073,,5,224.09303519967943,224.10319359973073,224.10319359973073,0.013834499754011631,225.2627979000099,[0.45925925925925926],[0.10185185185185185],[1],[0],[0],[1.1692963000386953],['target'],03,001,2024-10-10_12h31.17.803,Visual Search,2024.2.1post4,59.746935815766605,2024-10-10 12h33.49.874365 +0530,
138,0,138,[0.4027777777777778],[0.3453703703703704],[1],[0],[0],[1.4090276001952589],['target'],138,0,138,0,225.3047497998923,,10,225.29042409965768,225.3047497998923,225.3047497998923,0.027456900104880333,226.69990890007466,[0.4027777777777778],[0.3453703703703704],[1],[0],[0],[1.4090276001952589],['target'],03,001,2024-10-10_12h31.17.803,Visual Search,2024.2.1post4,59.746935815766605,2024-10-10 12h33.49.874365 +0530,
139,0,139,[0.2740740740740741],[0.16296296296296298],[1],[0],[0],[1.0943205002695322],['target'],139,0,139,0,226.7409173999913,,10,226.726478099823,226.7409173999913,226.7409173999913,0.026408200152218342,227.82128189969808,[0.2740740740740741],[0.16296296296296298],[1],[0],[0],[1.0943205002695322],['target'],03,001,2024-10-10_12h31.17.803,Visual Search,2024.2.1post4,59.746935815766605,2024-10-10 12h33.49.874365 +0530,
140,0,140,[-0.2175925925925926],[0.020370370370370372],[1],[0],[0],[1.752555700019002],['target'],140,0,140,0,227.84351859986782,,5,227.83451279997826,227.84351859986782,227.84351859986782,0.013069099746644497,229.5875450000167,[-0.2175925925925926],[0.020370370370370372],[1],[0],[0],[1.752555700019002],['target'],03,001,2024-10-10_12h31.17.803,Visual Search,2024.2.1post4,59.746935815766605,2024-10-10 12h33.49.874365 +0530,
141,0,141,[0.10648148148148148],[0.21203703703703702],[1],[0],[0],[1.2754665999673307],['target'],141,0,141,0,229.6294797998853,,10,229.61580879986286,229.6294797998853,229.6294797998853,0.028124399948865175,230.89174819970503,[0.10648148148148148],[0.21203703703703702],[1],[0],[0],[1.2754665999673307],['target'],03,001,2024-10-10_12h31.17.803,Visual Search,2024.2.1post4,59.746935815766605,2024-10-10 12h33.49.874365 +0530,
142,0,142,[0.2935185185185185],[0.046296296296296294],[1],[0],[0],[1.1172620998695493],['target'],142,0,142,0,230.91889139963314,,5,230.907390399836,230.91889139963314,230.91889139963314,0.015488300006836653,232.02509350003675,[0.2935185185185185],[0.046296296296296294],[1],[0],[0],[1.1172620998695493],['target'],03,001,2024-10-10_12h31.17.803,Visual Search,2024.2.1post4,59.746935815766605,2024-10-10 12h33.49.874365 +0530,
143,0,143,[-0.36574074074074076],[-0.2962962962962963],[1],[0],[0],[1.4025439000688493],['target'],143,0,143,0,232.04811949981377,,5,232.03915289975703,232.04811949981377,232.04811949981377,0.013926200103014708,233.44225819967687,[-0.36574074074074076],[-0.2962962962962963],[1],[0],[0],[1.4025439000688493],['target'],03,001,2024-10-10_12h31.17.803,Visual Search,2024.2.1post4,59.746935815766605,2024-10-10 12h33.49.874365 +0530,
144,0,144,[0.18333333333333332],[0.32037037037037036],[1],[0],[0],[2.0995398997329175],['target'],144,0,144,0,233.46780989971012,,5,233.45876690000296,233.46780989971012,233.46780989971012,0.016214600298553705,235.5587230999954,[0.18333333333333332],[0.32037037037037036],[1],[0],[0],[2.0995398997329175],['target'],03,001,2024-10-10_12h31.17.803,Visual Search,2024.2.1post4,59.746935815766605,2024-10-10 12h33.49.874365 +0530,
145,0,145,[-0.2101851851851852],[0.06666666666666667],[1],[0],[0],[1.0425335001200438],['target'],145,0,145,0,235.5991603997536,,10,235.5863846996799,235.5991603997536,235.5991603997536,0.02753550000488758,236.62933170003816,[-0.2101851851851852],[0.06666666666666667],[1],[0],[0],[1.0425335001200438],['target'],03,001,2024-10-10_12h31.17.803,Visual Search,2024.2.1post4,59.746935815766605,2024-10-10 12h33.49.874365 +0530,
146,0,146,[0.43148148148148147],[-0.3509259259259259],[1],[0],[0],[1.3007852998562157],['target'],146,0,146,0,236.6538358000107,,5,236.64470489975065,236.6538358000107,236.6538358000107,0.015227400232106447,237.94599069980904,[0.43148148148148147],[-0.3509259259259259],[1],[0],[0],[1.3007852998562157],['target'],03,001,2024-10-10_12h31.17.803,Visual Search,2024.2.1post4,59.746935815766605,2024-10-10 12h33.49.874365 +0530,
147,0,147,[0.24259259259259258],[0.11203703703703703],[1],[0],[0],[1.1687755999155343],['target'],147,0,147,0,237.96847620001063,,5,237.95954949967563,237.96847620001063,237.96847620001063,0.01336860004812479,239.12876469967887,[0.24259259259259258],[0.11203703703703703],[1],[0],[0],[1.1687755999155343],['target'],03,001,2024-10-10_12h31.17.803,Visual Search,2024.2.1post4,59.746935815766605,2024-10-10 12h33.49.874365 +0530,
148,0,148,[0.07037037037037037],[0.40185185185185185],[1],[0],[0],[1.2944048000499606],['target'],148,0,148,0,239.16863039974123,,10,239.15482699964195,239.16863039974123,239.16863039974123,0.025867299642413855,240.44972759997472,[0.07037037037037037],[0.40185185185185185],[1],[0],[0],[1.2944048000499606],['target'],03,001,2024-10-10_12h31.17.803,Visual Search,2024.2.1post4,59.746935815766605,2024-10-10 12h33.49.874365 +0530,
149,0,149,[-0.39537037037037037],[-0.14722222222222223],[1],[0],[0],[1.469138199929148],['target'],149,0,149,0,240.47226269962266,,5,240.4634799999185,240.47226269962266,240.47226269962266,0.013524099718779325,241.93316449970007,[-0.39537037037037037],[-0.14722222222222223],[1],[0],[0],[1.469138199929148],['target'],03,001,2024-10-10_12h31.17.803,Visual Search,2024.2.1post4,59.746935815766605,2024-10-10 12h33.49.874365 +0530,
150,0,150,[0.3490740740740741],[-0.46296296296296297],[1],[0],[0],[1.802931500133127],['target'],150,0,150,0,241.9561330997385,,5,241.94704809971154,241.9561330997385,241.9561330997385,0.013661300297826529,243.75047119986266,[0.3490740740740741],[-0.46296296296296297],[1],[0],[0],[1.802931500133127],['target'],03,001,2024-10-10_12h31.17.803,Visual Search,2024.2.1post4,59.746935815766605,2024-10-10 12h33.49.874365 +0530,
151,0,151,[-0.10185185185185185],[-0.11203703703703703],[1],[0],[0],[2.0421564001590014],['target'],151,0,151,0,243.79055759962648,,10,243.77792149968445,243.79055759962648,243.79055759962648,0.027284800074994564,245.82061970001087,[-0.10185185185185185],[-0.11203703703703703],[1],[0],[0],[2.0421564001590014],['target'],03,001,2024-10-10_12h31.17.803,Visual Search,2024.2.1post4,59.746935815766605,2024-10-10 12h33.49.874365 +0530,
152,0,152,[-0.4101851851851852],[-0.02962962962962963],[1],[0],[0],[1.841725999955088],['target'],152,0,152,0,245.86156750004739,,10,245.8485841997899,245.86156750004739,245.86156750004739,0.027799800038337708,247.6908811996691,[-0.4101851851851852],[-0.02962962962962963],[1],[0],[0],[1.841725999955088],['target'],03,001,2024-10-10_12h31.17.803,Visual Search,2024.2.1post4,59.746935815766605,2024-10-10 12h33.49.874365 +0530,
153,0,153,[-0.34814814814814815],[-0.03425925925925926],[1],[0],[0],[1.2586408001370728],['target'],153,0,153,0,247.73304179962724,,10,247.71995549974963,247.73304179962724,247.73304179962724,0.028790400363504887,248.9790284000337,[-0.34814814814814815],[-0.03425925925925926],[1],[0],[0],[1.2586408001370728],['target'],03,001,2024-10-10_12h31.17.803,Visual Search,2024.2.1post4,59.746935815766605,2024-10-10 12h33.49.874365 +0530,
154,0,154,[0.44074074074074077],[0.46944444444444444],[1],[0],[0],[1.8223536000587046],['target'],154,0,154,0,249.0249582999386,,10,249.01030649989843,249.0249582999386,249.0249582999386,0.031053599901497364,250.83316739974543,[0.44074074074074077],[0.46944444444444444],[1],[0],[0],[1.8223536000587046],['target'],03,001,2024-10-10_12h31.17.803,Visual Search,2024.2.1post4,59.746935815766605,2024-10-10 12h33.49.874365 +0530,
155,0,155,[-0.025925925925925925],[-0.046296296296296294],[1],[0],[0],[2.1418425999581814],['target'],155,0,155,0,250.8744174996391,,10,250.86134269973263,250.8744174996391,250.8744174996391,0.027967700269073248,253.00358979962766,[-0.025925925925925925],[-0.046296296296296294],[1],[0],[0],[2.1418425999581814],['target'],03,001,2024-10-10_12h31.17.803,Visual Search,2024.2.1post4,59.746935815766605,2024-10-10 12h33.49.874365 +0530,
156,0,156,[0.2935185185185185],[0.2518518518518518],[1],[0],[0],[1.5282322000712156],['target'],156,0,156,0,253.04322530003265,,10,253.02965709986165,253.04322530003265,253.04322530003265,0.02591329999268055,254.55836359970272,[0.2935185185185185],[0.2518518518518518],[1],[0],[0],[1.5282322000712156],['target'],03,001,2024-10-10_12h31.17.803,Visual Search,2024.2.1post4,59.746935815766605,2024-10-10 12h33.49.874365 +0530,
157,0,157,[0.05277777777777778],[-0.13425925925925927],[1],[0],[0],[2.3898745998740196],['target'],157,0,157,0,254.6033747997135,,10,254.58852199977264,254.6033747997135,254.6033747997135,0.02995199989527464,256.97879369976,[0.05277777777777778],[-0.13425925925925927],[1],[0],[0],[2.3898745998740196],['target'],03,001,2024-10-10_12h31.17.803,Visual Search,2024.2.1post4,59.746935815766605,2024-10-10 12h33.49.874365 +0530,
158,0,158,[-0.1925925925925926],[0.4351851851851852],[1],[0],[0],[1.7063803998753428],['target'],158,0,158,0,257.0219028997235,,10,257.00886130006984,257.0219028997235,257.0219028997235,0.029912699945271015,258.7156881997362,[-0.1925925925925926],[0.4351851851851852],[1],[0],[0],[1.7063803998753428],['target'],03,001,2024-10-10_12h31.17.803,Visual Search,2024.2.1post4,59.746935815766605,2024-10-10 12h33.49.874365 +0530,
159,0,159,[0.12407407407407407],[-0.1574074074074074],[1],[0],[0],[1.0743950000032783],['target'],159,0,159,0,258.7593344999477,,10,258.74562089983374,258.7593344999477,258.7593344999477,0.029667099937796593,259.8204851998016,[0.12407407407407407],[-0.1574074074074074],[1],[0],[0],[1.0743950000032783],['target'],03,001,2024-10-10_12h31.17.803,Visual Search,2024.2.1post4,59.746935815766605,2024-10-10 12h33.49.874365 +0530,
160,0,160,[-0.17222222222222222],[-0.337037037037037],[1],[0],[0],[1.2024746998213232],['target'],160,0,160,0,259.8442388996482,,5,259.83407699968666,259.8442388996482,259.8442388996482,0.013432899955660105,261.03696989966556,[-0.17222222222222222],[-0.337037037037037],[1],[0],[0],[1.2024746998213232],['target'],03,001,2024-10-10_12h31.17.803,Visual Search,2024.2.1post4,59.746935815766605,2024-10-10 12h33.49.874365 +0530,
161,0,161,[0.16018518518518518],[-0.19166666666666668],[1],[0],[0],[1.0515701998956501],['target'],161,0,161,0,261.06047199992463,,5,261.05152959981933,261.06047199992463,261.06047199992463,0.014438900165259838,262.1035503996536,[0.16018518518518518],[-0.19166666666666668],[1],[0],[0],[1.0515701998956501],['target'],03,001,2024-10-10_12h31.17.803,Visual Search,2024.2.1post4,59.746935815766605,2024-10-10 12h33.49.874365 +0530,
162,0,162,[-0.22592592592592592],[-0.30648148148148147],[1],[0],[0],[1.5268799997866154],['target'],162,0,162,0,262.1429849998094,,10,262.129832000006,262.1429849998094,262.1429849998094,0.026155200321227312,263.65729149989784,[-0.22592592592592592],[-0.30648148148148147],[1],[0],[0],[1.5268799997866154],['target'],03,001,2024-10-10_12h31.17.803,Visual Search,2024.2.1post4,59.746935815766605,2024-10-10 12h33.49.874365 +0530,
163,0,163,[-0.4638888888888889],[0.4185185185185185],[1],[0],[0],[2.0122744999825954],['target'],163,0,163,0,263.6958031998947,,10,263.68284579971805,263.6958031998947,263.6958031998947,0.025330000091344118,265.69556819973513,[-0.4638888888888889],[0.4185185185185185],[1],[0],[0],[2.0122744999825954],['target'],03,001,2024-10-10_12h31.17.803,Visual Search,2024.2.1post4,59.746935815766605,2024-10-10 12h33.49.874365 +0530,
164,0,164,[-0.23796296296296296],[-0.07314814814814814],[1],[0],[0],[1.6492830999195576],['target'],164,0,164,0,265.72160719987005,,5,265.71241329982877,265.72160719987005,265.72160719987005,0.016626300290226936,267.36220909981057,[-0.23796296296296296],[-0.07314814814814814],[1],[0],[0],[1.6492830999195576],['target'],03,001,2024-10-10_12h31.17.803,Visual Search,2024.2.1post4,59.746935815766605,2024-10-10 12h33.49.874365 +0530,
165,0,165,[-0.4203703703703704],[-0.3527777777777778],[1],[0],[0],[1.4729867996647954],['target'],165,0,165,0,267.40574759989977,,10,267.3924928000197,267.40574759989977,267.40574759989977,0.03012590017169714,268.86592529993504,[-0.4203703703703704],[-0.3527777777777778],[1],[0],[0],[1.4729867996647954],['target'],03,001,2024-10-10_12h31.17.803,Visual Search,2024.2.1post4,59.746935815766605,2024-10-10 12h33.49.874365 +0530,
166,0,166,[0.3314814814814815],[-0.48333333333333334],[1],[0],[0],[1.9494890002533793],['target'],166,0,166,0,268.89340059971437,,5,268.8827013000846,268.89340059971437,268.89340059971437,0.016562100034207106,270.8326149000786,[0.3314814814814815],[-0.48333333333333334],[1],[0],[0],[1.9494890002533793],['target'],03,001,2024-10-10_12h31.17.803,Visual Search,2024.2.1post4,59.746935815766605,2024-10-10 12h33.49.874365 +0530,
167,0,167,[0.37037037037037035],[-0.29907407407407405],[1],[0],[0],[1.606720000039786],['target'],167,0,167,0,270.8750906996429,,10,270.86246800003573,270.8750906996429,270.8750906996429,0.02972659980878234,272.469695399981,[0.37037037037037035],[-0.29907407407407405],[1],[0],[0],[1.606720000039786],['target'],03,001,2024-10-10_12h31.17.803,Visual Search,2024.2.1post4,59.746935815766605,2024-10-10 12h33.49.874365 +0530,
168,0,168,[-0.24722222222222223],[0.1425925925925926],[1],[0],[0],[1.337561700027436],['target'],168,0,168,0,272.51609569974244,,10,272.5029116999358,272.51609569974244,272.51609569974244,0.033015900291502476,273.8410081998445,[-0.24722222222222223],[0.1425925925925926],[1],[0],[0],[1.337561700027436],['target'],03,001,2024-10-10_12h31.17.803,Visual Search,2024.2.1post4,59.746935815766605,2024-10-10 12h33.49.874365 +0530,
169,0,169,[-0.44351851851851853],[0.2953703703703704],[1],[0],[0],[1.2685409002006054],['target'],169,0,169,0,273.86422959994525,,5,273.85480459965765,273.86422959994525,273.86422959994525,0.013529800344258547,275.12376439990476,[-0.44351851851851853],[0.2953703703703704],[1],[0],[0],[1.2685409002006054],['target'],03,001,2024-10-10_12h31.17.803,Visual Search,2024.2.1post4,59.746935815766605,2024-10-10 12h33.49.874365 +0530,
170,0,170,[-0.46944444444444444],[-0.21851851851851853],[1],[0],[0],[1.6242617000825703],['target'],170,0,170,0,275.165922800079,,10,275.15302599966526,275.165922800079,275.165922800079,0.029127900023013353,276.7777069997974,[-0.46944444444444444],[-0.21851851851851853],[1],[0],[0],[1.6242617000825703],['target'],03,001,2024-10-10_12h31.17.803,Visual Search,2024.2.1post4,59.746935815766605,2024-10-10 12h33.49.874365 +0530,
171,0,171,[0.44351851851851853],[0.38425925925925924],[1],[0],[0],[1.5446397997438908],['target'],171,0,171,0,276.81672579981387,,10,276.8042085999623,276.81672579981387,276.81672579981387,0.026345999911427498,278.3492478998378,[0.44351851851851853],[0.38425925925925924],[1],[0],[0],[1.5446397997438908],['target'],03,001,2024-10-10_12h31.17.803,Visual Search,2024.2.1post4,59.746935815766605,2024-10-10 12h33.49.874365 +0530,
172,0,172,[0.3972222222222222],[-0.44907407407407407],[1],[0],[0],[1.907912699971348],['target'],172,0,172,0,278.39085769979283,,10,278.3785063000396,278.39085769979283,278.39085769979283,0.02910610008984804,280.2868627998978,[0.3972222222222222],[-0.44907407407407407],[1],[0],[0],[1.907912699971348],['target'],03,001,2024-10-10_12h31.17.803,Visual Search,2024.2.1post4,59.746935815766605,2024-10-10 12h33.49.874365 +0530,
173,0,173,[0.4425925925925926],[-0.44722222222222224],[1],[0],[0],[1.4250717000104487],['target'],173,0,173,0,280.32786139985546,,10,280.3154088999145,280.32786139985546,280.32786139985546,0.028387299738824368,281.74090739991516,[0.4425925925925926],[-0.44722222222222224],[1],[0],[0],[1.4250717000104487],['target'],03,001,2024-10-10_12h31.17.803,Visual Search,2024.2.1post4,59.746935815766605,2024-10-10 12h33.49.874365 +0530,
174,0,174,"[-0.09907407407407408, -0.11018518518518519]","[-0.04537037037037037, -0.04537037037037037]","[1, 1]","[0, 0]","[0, 0]","[2.2936126003041863, 2.709948900155723]","[None, 'target']",174,0,174,0,281.7803010996431,,10,281.7675935998559,281.7803010996431,281.7803010996431,0.026528799906373024,284.4779618997127,"[-0.09907407407407408, -0.11018518518518519]","[-0.04537037037037037, -0.04537037037037037]","[1, 1]","[0, 0]","[0, 0]","[2.2936126003041863, 2.709948900155723]","[None, 'target']",03,001,2024-10-10_12h31.17.803,Visual Search,2024.2.1post4,59.746935815766605,2024-10-10 12h33.49.874365 +0530,
175,0,175,[0.462037037037037],[-0.09814814814814815],[1],[0],[0],[1.1414665998890996],['target'],175,0,175,0,284.5203833999112,,10,284.5067765000276,284.5203833999112,284.5203833999112,0.028634800110012293,285.64881510008126,[0.462037037037037],[-0.09814814814814815],[1],[0],[0],[1.1414665998890996],['target'],03,001,2024-10-10_12h31.17.803,Visual Search,2024.2.1post4,59.746935815766605,2024-10-10 12h33.49.874365 +0530,
176,0,176,[-0.017592592592592594],[-0.024074074074074074],[1],[0],[0],[2.1014711000025272],['target'],176,0,176,0,285.673373399768,,5,285.663912799675,285.673373399768,285.673373399768,0.014833400025963783,287.76583229983225,[-0.017592592592592594],[-0.024074074074074074],[1],[0],[0],[2.1014711000025272],['target'],03,001,2024-10-10_12h31.17.803,Visual Search,2024.2.1post4,59.746935815766605,2024-10-10 12h33.49.874365 +0530,
177,0,177,[0.47314814814814815],[0.1259259259259259],[1],[0],[0],[1.3351312996819615],['target'],177,0,177,0,287.7891500997357,,5,287.7802263996564,287.7891500997357,287.7891500997357,0.014238400384783745,289.11581690004095,[0.47314814814814815],[0.1259259259259259],[1],[0],[0],[1.3351312996819615],['target'],03,001,2024-10-10_12h31.17.803,Visual Search,2024.2.1post4,59.746935815766605,2024-10-10 12h33.49.874365 +0530,
178,0,178,[-0.009259259259259259],[0.45092592592592595],[1],[0],[0],[1.5431527001783252],['target'],178,0,178,0,289.1563011999242,,10,289.14313209988177,289.1563011999242,289.1563011999242,0.02715149987488985,290.68679230008274,[-0.009259259259259259],[0.45092592592592595],[1],[0],[0],[1.5431527001783252],['target'],03,001,2024-10-10_12h31.17.803,Visual Search,2024.2.1post4,59.746935815766605,2024-10-10 12h33.49.874365 +0530,
179,0,179,[0.35648148148148145],[0.30648148148148147],[1],[0],[0],[1.1996524999849498],['target'],179,0,179,0,290.71337269991636,,5,290.70312769990414,290.71337269991636,290.71337269991636,0.016193800140172243,291.9035195996985,[0.35648148148148145],[0.30648148148148147],[1],[0],[0],[1.1996524999849498],['target'],03,001,2024-10-10_12h31.17.803,Visual Search,2024.2.1post4,59.746935815766605,2024-10-10 12h33.49.874365 +0530,
180,0,180,[-0.3101851851851852],[-0.2638888888888889],[1],[0],[0],[1.1188304000534117],['target'],180,0,180,0,291.9269530000165,,5,291.9168473999016,291.9269530000165,291.9269530000165,0.013164800126105547,293.03615629998967,[-0.3101851851851852],[-0.2638888888888889],[1],[0],[0],[1.1188304000534117],['target'],03,001,2024-10-10_12h31.17.803,Visual Search,2024.2.1post4,59.746935815766605,2024-10-10 12h33.49.874365 +0530,
181,0,181,[0.3907407407407407],[0.08888888888888889],[1],[0],[0],[1.3844495001249015],['target'],181,0,181,0,293.0610890998505,,5,293.0516951996833,293.0610890998505,293.0610890998505,0.01541749993339181,294.4365908000618,[0.3907407407407407],[0.08888888888888889],[1],[0],[0],[1.3844495001249015],['target'],03,001,2024-10-10_12h31.17.803,Visual Search,2024.2.1post4,59.746935815766605,2024-10-10 12h33.49.874365 +0530,
182,0,182,[0.0],[0.32314814814814813],[1],[0],[0],[1.2576945000328124],['target'],182,0,182,0,294.4792895000428,,10,294.4659424996935,294.4792895000428,294.4792895000428,0.029196500312536955,295.7240860997699,[0.0],[0.32314814814814813],[1],[0],[0],[1.2576945000328124],['target'],03,001,2024-10-10_12h31.17.803,Visual Search,2024.2.1post4,59.746935815766605,2024-10-10 12h33.49.874365 +0530,
183,0,183,[0.012962962962962963],[-0.3037037037037037],[1],[0],[0],[1.6271375003270805],['target'],183,0,183,0,295.76379180001095,,10,295.75083469972014,295.76379180001095,295.76379180001095,0.026591199915856123,297.37838439969346,[0.012962962962962963],[-0.3037037037037037],[1],[0],[0],[1.6271375003270805],['target'],03,001,2024-10-10_12h31.17.803,Visual Search,2024.2.1post4,59.746935815766605,2024-10-10 12h33.49.874365 +0530,
184,0,184,[0.39351851851851855],[0.46944444444444444],[1],[0],[0],[1.8029920002445579],['target'],184,0,184,0,297.4004970998503,,5,297.39159159967676,297.4004970998503,297.4004970998503,0.013051300309598446,299.19501559995115,[0.39351851851851855],[0.46944444444444444],[1],[0],[0],[1.8029920002445579],['target'],03,001,2024-10-10_12h31.17.803,Visual Search,2024.2.1post4,59.746935815766605,2024-10-10 12h33.49.874365 +0530,
185,0,185,[-0.17962962962962964],[-0.1037037037037037],[1],[0],[0],[1.721066900063306],['target'],185,0,185,0,299.23967449972406,,10,299.2272254996933,299.23967449972406,299.23967449972406,0.032048600260168314,300.94877699995413,[-0.17962962962962964],[-0.1037037037037037],[1],[0],[0],[1.721066900063306],['target'],03,001,2024-10-10_12h31.17.803,Visual Search,2024.2.1post4,59.746935815766605,2024-10-10 12h33.49.874365 +0530,
186,0,186,[0.010185185185185186],[0.14537037037037037],[1],[0],[0],[0.9867634996771812],['target'],186,0,186,0,300.9710343996994,,5,300.9622100996785,300.9710343996994,300.9710343996994,0.013274500146508217,301.94948119996116,[0.010185185185185186],[0.14537037037037037],[1],[0],[0],[0.9867634996771812],['target'],03,001,2024-10-10_12h31.17.803,Visual Search,2024.2.1post4,59.746935815766605,2024-10-10 12h33.49.874365 +0530,
187,0,187,[-0.022222222222222223],[0.44907407407407407],[1],[0],[0],[0.8906403998844326],['target'],187,0,187,0,301.992971399799,,10,301.978930699639,301.992971399799,301.992971399799,0.029266499914228916,302.8702861000784,[-0.022222222222222223],[0.44907407407407407],[1],[0],[0],[0.8906403998844326],['target'],03,001,2024-10-10_12h31.17.803,Visual Search,2024.2.1post4,59.746935815766605,2024-10-10 12h33.49.874365 +0530,
188,0,188,[-0.21851851851851853],[-0.04537037037037037],[1],[0],[0],[1.202656100038439],['target'],188,0,188,0,302.89372229995206,,5,302.88350179977715,302.89372229995206,302.89372229995206,0.013003500178456306,304.08660080004483,[-0.21851851851851853],[-0.04537037037037037],[1],[0],[0],[1.202656100038439],['target'],03,001,2024-10-10_12h31.17.803,Visual Search,2024.2.1post4,59.746935815766605,2024-10-10 12h33.49.874365 +0530,
189,0,189,[-0.10185185185185185],[0.24166666666666667],[1],[0],[0],[1.004069299902767],['target'],189,0,189,0,304.13105480000377,,10,304.1184568996541,304.13105480000377,304.13105480000377,0.03173030028119683,305.12303639994934,[-0.10185185185185185],[0.24166666666666667],[1],[0],[0],[1.004069299902767],['target'],03,001,2024-10-10_12h31.17.803,Visual Search,2024.2.1post4,59.746935815766605,2024-10-10 12h33.49.874365 +0530,
190,0,190,"[0.2037037037037037, 0.18981481481481483]","[-0.3138888888888889, -0.3055555555555556]","[1, 1]","[0, 0]","[0, 0]","[1.5376758999191225, 2.3372283997014165]","[None, 'target']",190,0,190,0,305.1694534998387,,10,305.1565561997704,305.1694534998387,305.1694534998387,0.033293699845671654,307.4942378997803,"[0.2037037037037037, 0.18981481481481483]","[-0.3138888888888889, -0.3055555555555556]","[1, 1]","[0, 0]","[0, 0]","[1.5376758999191225, 2.3372283997014165]","[None, 'target']",03,001,2024-10-10_12h31.17.803,Visual Search,2024.2.1post4,59.746935815766605,2024-10-10 12h33.49.874365 +0530,
191,0,191,"[0.025925925925925925, -0.2851851851851852]","[-0.15, 0.4842592592592593]","[1, 1]","[0, 0]","[0, 0]","[2.741680399980396, 5.290954899974167]","[None, 'target']",191,0,191,0,307.5365059999749,,10,307.523380599916,307.5365059999749,307.5365059999749,0.02895279973745346,312.81486579962075,"[0.025925925925925925, -0.2851851851851852]","[-0.15, 0.4842592592592593]","[1, 1]","[0, 0]","[0, 0]","[2.741680399980396, 5.290954899974167]","[None, 'target']",03,001,2024-10-10_12h31.17.803,Visual Search,2024.2.1post4,59.746935815766605,2024-10-10 12h33.49.874365 +0530,
192,0,192,[0.31203703703703706],[0.3888888888888889],[1],[0],[0],[1.1009639999829233],['target'],192,0,192,0,312.83970309980214,,5,312.8306897999719,312.83970309980214,312.83970309980214,0.015629699919372797,313.93221089988947,[0.31203703703703706],[0.3888888888888889],[1],[0],[0],[1.1009639999829233],['target'],03,001,2024-10-10_12h31.17.803,Visual Search,2024.2.1post4,59.746935815766605,2024-10-10 12h33.49.874365 +0530,
193,0,193,[-0.08703703703703704],[-0.44907407407407407],[1],[0],[0],[1.2852819999679923],['target'],193,0,193,0,313.9543292997405,,5,313.9454473997466,313.9543292997405,313.9543292997405,0.013108599931001663,315.2311615999788,[-0.08703703703703704],[-0.44907407407407407],[1],[0],[0],[1.2852819999679923],['target'],03,001,2024-10-10_12h31.17.803,Visual Search,2024.2.1post4,59.746935815766605,2024-10-10 12h33.49.874365 +0530,
194,0,194,[-0.29814814814814816],[0.31203703703703706],[1],[0],[0],[1.4051280999556184],['target'],194,0,194,0,315.2761882999912,,10,315.2638376997784,315.2761882999912,315.2761882999912,0.03255609981715679,316.66938719991595,[-0.29814814814814816],[0.31203703703703706],[1],[0],[0],[1.4051280999556184],['target'],03,001,2024-10-10_12h31.17.803,Visual Search,2024.2.1post4,59.746935815766605,2024-10-10 12h33.49.874365 +0530,
195,0,195,[-0.37777777777777777],[-0.2074074074074074],[1],[0],[0],[1.2851250995881855],['target'],195,0,195,0,316.69343200000003,,5,316.6839382997714,316.69343200000003,316.69343200000003,0.01439390005543828,317.9694928997196,[-0.37777777777777777],[-0.2074074074074074],[1],[0],[0],[1.2851250995881855],['target'],03,001,2024-10-10_12h31.17.803,Visual Search,2024.2.1post4,59.746935815766605,2024-10-10 12h33.49.874365 +0530,
196,0,196,[-0.044444444444444446],[0.10555555555555556],[1],[0],[0],[1.099665000103414],['target'],196,0,196,0,317.996261799708,,5,317.98585970001295,317.996261799708,317.996261799708,0.016243699938058853,319.08594849985093,[-0.044444444444444446],[0.10555555555555556],[1],[0],[0],[1.099665000103414],['target'],03,001,2024-10-10_12h31.17.803,Visual Search,2024.2.1post4,59.746935815766605,2024-10-10 12h33.49.874365 +0530,
197,0,197,[0.17777777777777778],[0.3435185185185185],[1],[0],[0],[0.9830330996774137],['target'],197,0,197,0,319.111711199861,,5,319.1019109999761,319.111711199861,319.111711199861,0.015837800223380327,320.08559689996764,[0.17777777777777778],[0.3435185185185185],[1],[0],[0],[0.9830330996774137],['target'],03,001,2024-10-10_12h31.17.803,Visual Search,2024.2.1post4,59.746935815766605,2024-10-10 12h33.49.874365 +0530,
198,0,198,[-0.09907407407407408],[0.33055555555555555],[1],[0],[0],[1.3081557997502387],['target'],198,0,198,0,320.12612430006266,,10,320.1138001997024,320.12612430006266,320.12612430006266,0.028074899688363075,321.42240629997104,[-0.09907407407407408],[0.33055555555555555],[1],[0],[0],[1.3081557997502387],['target'],03,001,2024-10-10_12h31.17.803,Visual Search,2024.2.1post4,59.746935815766605,2024-10-10 12h33.49.874365 +0530,
199,0,199,[-0.14444444444444443],[-0.46574074074074073],[1],[0],[0],[4.278836800251156],['target'],199,0,199,0,321.4612244996242,,10,321.4485912998207,321.4612244996242,321.4612244996242,0.0260258000344038,325.72796789975837,[-0.14444444444444443],[-0.46574074074074073],[1],[0],[0],[4.278836800251156],['target'],03,001,2024-10-10_12h31.17.803,Visual Search,2024.2.1post4,59.746935815766605,2024-10-10 12h33.49.874365 +0530,
