thisN,thisTrialN,thisRepN,mouse.x,mouse.y,mouse.leftButton,mouse.midButton,mouse.rightButton,mouse.time,mouse.clicked_name,trials.thisRepN,trials.thisTrialN,trials.thisN,trials.thisIndex,thisRow.t,notes,num_distr,trial.started,fixation.started,target.started,mouse.started,trial.stopped,trials.mouse.x,trials.mouse.y,trials.mouse.leftButton,trials.mouse.midButton,trials.mouse.rightButton,trials.mouse.time,trials.mouse.clicked_name,participant,session,date,expName,psychopyVersion,frameRate,expStart,
0,0,0,[-0.20277777777777778],[-0.040740740740740744],[1],[0],[0],[2.6141662001609802],['target'],0,0,0,0,0.0630947002209723,,10,0.045819600112736225,0.0630947002209723,0.0630947002209723,0.04550429992377758,2.66064770007506,[-0.20277777777777778],[-0.040740740740740744],[1],[0],[0],[2.6141662001609802],['target'],04,001,2024-10-10_12h40.11.041,Visual Search,2024.2.1post4,59.880813269782955,2024-10-10 12h40.24.749319 +0530,
1,0,1,[0.16111111111111112],[-0.2074074074074074],[1],[0],[0],[1.1665178001858294],['target'],1,0,1,0,2.685685300268233,,5,2.6764127002097666,2.685685300268233,2.685685300268233,0.015598699916154146,3.8434460000135005,[0.16111111111111112],[-0.2074074074074074],[1],[0],[0],[1.1665178001858294],['target'],04,001,2024-10-10_12h40.11.041,Visual Search,2024.2.1post4,59.880813269782955,2024-10-10 12h40.24.749319 +0530,
2,0,2,[-0.016666666666666666],[0.20555555555555555],[1],[0],[0],[1.5057243001647294],['target'],2,0,2,0,3.888794000260532,,10,3.8750978000462055,3.888794000260532,3.888794000260532,0.03144680010154843,5.381337699946016,[-0.016666666666666666],[0.20555555555555555],[1],[0],[0],[1.5057243001647294],['target'],04,001,2024-10-10_12h40.11.041,Visual Search,2024.2.1post4,59.880813269782955,2024-10-10 12h40.24.749319 +0530,
3,0,3,[0.18333333333333332],[-0.27314814814814814],[1],[0],[0],[1.672945899888873],['target'],3,0,3,0,5.424301200080663,,10,5.411215700209141,5.424301200080663,5.424301200080663,0.029661800246685743,7.084556000307202,[0.18333333333333332],[-0.27314814814814814],[1],[0],[0],[1.672945899888873],['target'],04,001,2024-10-10_12h40.11.041,Visual Search,2024.2.1post4,59.880813269782955,2024-10-10 12h40.24.749319 +0530,
4,0,4,[0.1638888888888889],[-0.24351851851851852],[1],[0],[0],[0.9865849004127085],['target'],4,0,4,0,7.108218600042164,,5,7.098393900319934,7.108218600042164,7.108218600042164,0.01367550017312169,8.085670500062406,[0.1638888888888889],[-0.24351851851851852],[1],[0],[0],[0.9865849004127085],['target'],04,001,2024-10-10_12h40.11.041,Visual Search,2024.2.1post4,59.880813269782955,2024-10-10 12h40.24.749319 +0530,
5,0,5,[0.10925925925925926],[0.24814814814814815],[1],[0],[0],[1.6498019001446664],['target'],5,0,5,0,8.110376100055873,,5,8.101131900213659,8.110376100055873,8.110376100055873,0.015320800244808197,9.751354299951345,[0.10925925925925926],[0.24814814814814815],[1],[0],[0],[1.6498019001446664],['target'],04,001,2024-10-10_12h40.11.041,Visual Search,2024.2.1post4,59.880813269782955,2024-10-10 12h40.24.749319 +0530,
6,0,6,[-0.2064814814814815],[0.49166666666666664],[1],[0],[0],[2.2652555997483432],['target'],6,0,6,0,9.778112899977714,,5,9.76927370019257,9.778112899977714,9.778112899977714,0.01774289971217513,12.034921500366181,[-0.2064814814814815],[0.49166666666666664],[1],[0],[0],[2.2652555997483432],['target'],04,001,2024-10-10_12h40.11.041,Visual Search,2024.2.1post4,59.880813269782955,2024-10-10 12h40.24.749319 +0530,
7,0,7,[0.006481481481481481],[0.31203703703703706],[1],[0],[0],[1.0854333997704089],['target'],7,0,7,0,12.058274799957871,,5,12.049117600079626,12.058274799957871,12.058274799957871,0.014063999988138676,13.135046900250018,[0.006481481481481481],[0.31203703703703706],[1],[0],[0],[1.0854333997704089],['target'],04,001,2024-10-10_12h40.11.041,Visual Search,2024.2.1post4,59.880813269782955,2024-10-10 12h40.24.749319 +0530,
8,0,8,[-0.125],[-0.22592592592592592],[1],[0],[0],[1.2856811000965536],['target'],8,0,8,0,13.159040000289679,,5,13.148748300038278,13.159040000289679,13.159040000289679,0.013582100160419941,14.434938400052488,[-0.125],[-0.22592592592592592],[1],[0],[0],[1.2856811000965536],['target'],04,001,2024-10-10_12h40.11.041,Visual Search,2024.2.1post4,59.880813269782955,2024-10-10 12h40.24.749319 +0530,
9,0,9,[0.2740740740740741],[0.43703703703703706],[1],[0],[0],[1.7396979997865856],['target'],9,0,9,0,14.478274600114673,,10,14.465210000053048,14.478274600114673,14.478274600114673,0.03006190015003085,16.20540860015899,[0.2740740740740741],[0.43703703703703706],[1],[0],[0],[1.7396979997865856],['target'],04,001,2024-10-10_12h40.11.041,Visual Search,2024.2.1post4,59.880813269782955,2024-10-10 12h40.24.749319 +0530,
10,0,10,"[-0.30925925925925923, -0.3425925925925926]","[0.23981481481481481, 0.25833333333333336]","[1, 1]","[0, 0]","[0, 0]","[1.3342281999066472, 1.9673202000558376]","[None, 'target']",10,0,10,0,16.229606000240892,,5,16.221008200198412,16.229606000240892,16.229606000240892,0.015317199751734734,18.1887419000268,"[-0.30925925925925923, -0.3425925925925926]","[0.23981481481481481, 0.25833333333333336]","[1, 1]","[0, 0]","[0, 0]","[1.3342281999066472, 1.9673202000558376]","[None, 'target']",04,001,2024-10-10_12h40.11.041,Visual Search,2024.2.1post4,59.880813269782955,2024-10-10 12h40.24.749319 +0530,
11,0,11,"[-0.21203703703703702, -0.1675925925925926]","[0.24537037037037038, 0.25277777777777777]","[1, 1]","[0, 0]","[0, 0]","[0.976893899962306, 1.609522799961269]","[None, 'target']",11,0,11,0,18.230504600331187,,10,18.21624520001933,18.230504600331187,18.230504600331187,0.02733819978311658,19.82623860007152,"[-0.21203703703703702, -0.1675925925925926]","[0.24537037037037038, 0.25277777777777777]","[1, 1]","[0, 0]","[0, 0]","[0.976893899962306, 1.609522799961269]","[None, 'target']",04,001,2024-10-10_12h40.11.041,Visual Search,2024.2.1post4,59.880813269782955,2024-10-10 12h40.24.749319 +0530,
12,0,12,[0.12685185185185185],[-0.19814814814814816],[1],[0],[0],[1.7915898999199271],['target'],12,0,12,0,19.867601100355387,,10,19.854585400316864,19.867601100355387,19.867601100355387,0.02810780005529523,21.646651100367308,[0.12685185185185185],[-0.19814814814814816],[1],[0],[0],[1.7915898999199271],['target'],04,001,2024-10-10_12h40.11.041,Visual Search,2024.2.1post4,59.880813269782955,2024-10-10 12h40.24.749319 +0530,
13,0,13,[0.017592592592592594],[0.4222222222222222],[1],[0],[0],[1.5552280996926129],['target'],13,0,13,0,21.693449400365353,,10,21.67939450033009,21.693449400365353,21.693449400365353,0.03258210001513362,23.23508770018816,[0.017592592592592594],[0.4222222222222222],[1],[0],[0],[1.5552280996926129],['target'],04,001,2024-10-10_12h40.11.041,Visual Search,2024.2.1post4,59.880813269782955,2024-10-10 12h40.24.749319 +0530,
14,0,14,[0.27870370370370373],[0.41203703703703703],[1],[0],[0],[1.401412300299853],['target'],14,0,14,0,23.258965000044554,,5,23.249636300373822,23.258965000044554,23.258965000044554,0.014338400214910507,24.65146810002625,[0.27870370370370373],[0.41203703703703703],[1],[0],[0],[1.401412300299853],['target'],04,001,2024-10-10_12h40.11.041,Visual Search,2024.2.1post4,59.880813269782955,2024-10-10 12h40.24.749319 +0530,
15,0,15,[0.31666666666666665],[0.11203703703703703],[1],[0],[0],[1.2720880997367203],['target'],15,0,15,0,24.695733400061727,,10,24.68294580001384,24.695733400061727,24.695733400061727,0.031352199614048004,25.955436000134796,[0.31666666666666665],[0.11203703703703703],[1],[0],[0],[1.2720880997367203],['target'],04,001,2024-10-10_12h40.11.041,Visual Search,2024.2.1post4,59.880813269782955,2024-10-10 12h40.24.749319 +0530,
16,0,16,[-0.11203703703703703],[-0.362962962962963],[1],[0],[0],[2.2071567000821233],['target'],16,0,16,0,25.99829740030691,,10,25.985493100248277,25.99829740030691,25.99829740030691,0.029895799700170755,28.193130500148982,[-0.11203703703703703],[-0.362962962962963],[1],[0],[0],[2.2071567000821233],['target'],04,001,2024-10-10_12h40.11.041,Visual Search,2024.2.1post4,59.880813269782955,2024-10-10 12h40.24.749319 +0530,
17,0,17,[0.2777777777777778],[0.46296296296296297],[1],[0],[0],[2.174402500037104],['target'],17,0,17,0,28.235443400219083,,10,28.222318599931896,28.235443400219083,28.235443400219083,0.028952099848538637,30.397136900108308,[0.2777777777777778],[0.46296296296296297],[1],[0],[0],[2.174402500037104],['target'],04,001,2024-10-10_12h40.11.041,Visual Search,2024.2.1post4,59.880813269782955,2024-10-10 12h40.24.749319 +0530,
18,0,18,[0.37592592592592594],[-0.3712962962962963],[1],[0],[0],[1.9160484001040459],['target'],18,0,18,0,30.423279700335115,,5,30.414057100191712,30.423279700335115,30.423279700335115,0.01671000011265278,32.33052790025249,[0.37592592592592594],[-0.3712962962962963],[1],[0],[0],[1.9160484001040459],['target'],04,001,2024-10-10_12h40.11.041,Visual Search,2024.2.1post4,59.880813269782955,2024-10-10 12h40.24.749319 +0530,
19,0,19,[-0.387037037037037],[-0.29814814814814816],[1],[0],[0],[1.8589964997954667],['target'],19,0,19,0,32.37145380023867,,10,32.358751400373876,32.37145380023867,32.37145380023867,0.028100000228732824,34.21821690024808,[-0.387037037037037],[-0.29814814814814816],[1],[0],[0],[1.8589964997954667],['target'],04,001,2024-10-10_12h40.11.041,Visual Search,2024.2.1post4,59.880813269782955,2024-10-10 12h40.24.749319 +0530,
20,0,20,[-0.10648148148148148],[0.26666666666666666],[1],[0],[0],[1.3846744000911713],['target'],20,0,20,0,34.242703000083566,,5,34.233173000160605,34.242703000083566,34.242703000083566,0.014782799873501062,35.6183433001861,[-0.10648148148148148],[0.26666666666666666],[1],[0],[0],[1.3846744000911713],['target'],04,001,2024-10-10_12h40.11.041,Visual Search,2024.2.1post4,59.880813269782955,2024-10-10 12h40.24.749319 +0530,
21,0,21,[-0.23981481481481481],[0.03611111111111111],[1],[0],[0],[1.2181686996482313],['target'],21,0,21,0,35.66823370009661,,10,35.65350680006668,35.66823370009661,35.66823370009661,0.035019099712371826,36.87220390001312,[-0.23981481481481481],[0.03611111111111111],[1],[0],[0],[1.2181686996482313],['target'],04,001,2024-10-10_12h40.11.041,Visual Search,2024.2.1post4,59.880813269782955,2024-10-10 12h40.24.749319 +0530,
22,0,22,[0.42592592592592593],[-0.1935185185185185],[1],[0],[0],[2.1625777003355324],['target'],22,0,22,0,36.910807200241834,,10,36.89801420038566,36.910807200241834,36.910807200241834,0.025653100106865168,39.06098930025473,[0.42592592592592593],[-0.1935185185185185],[1],[0],[0],[2.1625777003355324],['target'],04,001,2024-10-10_12h40.11.041,Visual Search,2024.2.1post4,59.880813269782955,2024-10-10 12h40.24.749319 +0530,
23,0,23,[0.13425925925925927],[0.019444444444444445],[1],[0],[0],[1.3911445001140237],['target'],23,0,23,0,39.10241400031373,,10,39.089863600209355,39.10241400031373,39.10241400031373,0.028699500020593405,40.48155210027471,[0.13425925925925927],[0.019444444444444445],[1],[0],[0],[1.3911445001140237],['target'],04,001,2024-10-10_12h40.11.041,Visual Search,2024.2.1post4,59.880813269782955,2024-10-10 12h40.24.749319 +0530,
24,0,24,[-0.37777777777777777],[-0.3574074074074074],[1],[0],[0],[2.254818100016564],['target'],24,0,24,0,40.52626740001142,,10,40.51353210024536,40.52626740001142,40.52626740001142,0.0317675000987947,42.76884400006384,[-0.37777777777777777],[-0.3574074074074074],[1],[0],[0],[2.254818100016564],['target'],04,001,2024-10-10_12h40.11.041,Visual Search,2024.2.1post4,59.880813269782955,2024-10-10 12h40.24.749319 +0530,
25,0,25,[-0.20185185185185187],[0.12407407407407407],[1],[0],[0],[1.3169070999138057],['target'],25,0,25,0,42.79431680031121,,5,42.78480410017073,42.79431680031121,42.79431680031121,0.015738099813461304,44.1021289001219,[-0.20185185185185187],[0.12407407407407407],[1],[0],[0],[1.3169070999138057],['target'],04,001,2024-10-10_12h40.11.041,Visual Search,2024.2.1post4,59.880813269782955,2024-10-10 12h40.24.749319 +0530,
26,0,26,[0.020370370370370372],[-0.07685185185185185],[1],[0],[0],[1.2004203996621072],['target'],26,0,26,0,44.126945400144905,,5,44.11752890003845,44.126945400144905,44.126945400144905,0.01522849965840578,45.31845810031518,[0.020370370370370372],[-0.07685185185185185],[1],[0],[0],[1.2004203996621072],['target'],04,001,2024-10-10_12h40.11.041,Visual Search,2024.2.1post4,59.880813269782955,2024-10-10 12h40.24.749319 +0530,
27,0,27,[0.40370370370370373],[0.14537037037037037],[1],[0],[0],[2.275311699602753],['target'],27,0,27,0,45.363924600183964,,10,45.35098180035129,45.363924600183964,45.363924600183964,0.03224579989910126,47.62683910038322,[0.40370370370370373],[0.14537037037037037],[1],[0],[0],[2.275311699602753],['target'],04,001,2024-10-10_12h40.11.041,Visual Search,2024.2.1post4,59.880813269782955,2024-10-10 12h40.24.749319 +0530,
28,0,28,[-0.06111111111111111],[0.4648148148148148],[1],[0],[0],[1.4000201001763344],['target'],28,0,28,0,47.65897570038214,,5,47.64619300002232,47.65897570038214,47.65897570038214,0.019140700343996286,49.046759699936956,[-0.06111111111111111],[0.4648148148148148],[1],[0],[0],[1.4000201001763344],['target'],04,001,2024-10-10_12h40.11.041,Visual Search,2024.2.1post4,59.880813269782955,2024-10-10 12h40.24.749319 +0530,
29,0,29,[-0.2222222222222222],[-0.20185185185185187],[1],[0],[0],[1.5164612997323275],['target'],29,0,29,0,49.07256150012836,,5,49.062995000276715,49.07256150012836,49.07256150012836,0.0160348997451365,50.57998079992831,[-0.2222222222222222],[-0.20185185185185187],[1],[0],[0],[1.5164612997323275],['target'],04,001,2024-10-10_12h40.11.041,Visual Search,2024.2.1post4,59.880813269782955,2024-10-10 12h40.24.749319 +0530,
30,0,30,[-0.08518518518518518],[-0.4388888888888889],[1],[0],[0],[1.8017531000077724],['target'],30,0,30,0,50.603816400282085,,5,50.59427980007604,50.603816400282085,50.603816400282085,0.014147699810564518,52.396551500074565,[-0.08518518518518518],[-0.4388888888888889],[1],[0],[0],[1.8017531000077724],['target'],04,001,2024-10-10_12h40.11.041,Visual Search,2024.2.1post4,59.880813269782955,2024-10-10 12h40.24.749319 +0530,
31,0,31,[0.3648148148148148],[-0.3055555555555556],[1],[0],[0],[1.9048633999191225],['target'],31,0,31,0,52.44311430025846,,10,52.428769800346345,52.44311430025846,52.44311430025846,0.03209630027413368,54.33403620030731,[0.3648148148148148],[-0.3055555555555556],[1],[0],[0],[1.9048633999191225],['target'],04,001,2024-10-10_12h40.11.041,Visual Search,2024.2.1post4,59.880813269782955,2024-10-10 12h40.24.749319 +0530,
32,0,32,[0.37222222222222223],[-0.23796296296296296],[1],[0],[0],[1.0161008997820318],['target'],32,0,32,0,54.360677800141275,,5,54.35120279993862,54.360677800141275,54.360677800141275,0.016957500018179417,55.36772770015523,[0.37222222222222223],[-0.23796296296296296],[1],[0],[0],[1.0161008997820318],['target'],04,001,2024-10-10_12h40.11.041,Visual Search,2024.2.1post4,59.880813269782955,2024-10-10 12h40.24.749319 +0530,
33,0,33,[0.4009259259259259],[-0.35462962962962963],[1],[0],[0],[1.4022909002378583],['target'],33,0,33,0,55.390722000040114,,5,55.38155770022422,55.390722000040114,55.390722000040114,0.013688699807971716,56.78425020026043,[0.4009259259259259],[-0.35462962962962963],[1],[0],[0],[1.4022909002378583],['target'],04,001,2024-10-10_12h40.11.041,Visual Search,2024.2.1post4,59.880813269782955,2024-10-10 12h40.24.749319 +0530,
34,0,34,[-0.4083333333333333],[-0.20555555555555555],[1],[0],[0],[2.9256099998019636],['target'],34,0,34,0,56.825094300322235,,10,56.81199470022693,56.825094300322235,56.825094300322235,0.0276056001894176,59.738054000306875,[-0.4083333333333333],[-0.20555555555555555],[1],[0],[0],[2.9256099998019636],['target'],04,001,2024-10-10_12h40.11.041,Visual Search,2024.2.1post4,59.880813269782955,2024-10-10 12h40.24.749319 +0530,
35,0,35,[-0.16296296296296298],[-0.23796296296296296],[1],[0],[0],[1.3845866001211107],['target'],35,0,35,0,59.76136860018596,,5,59.75260920030996,59.76136860018596,59.76136860018596,0.01439280016347766,61.13760520005599,[-0.16296296296296298],[-0.23796296296296296],[1],[0],[0],[1.3845866001211107],['target'],04,001,2024-10-10_12h40.11.041,Visual Search,2024.2.1post4,59.880813269782955,2024-10-10 12h40.24.749319 +0530,
36,0,36,[-0.28425925925925927],[-0.4148148148148148],[1],[0],[0],[1.2345710997469723],['target'],36,0,36,0,61.16158200008795,,5,61.152204000391066,61.16158200008795,61.16158200008795,0.014420200139284134,62.387284399941564,[-0.28425925925925927],[-0.4148148148148148],[1],[0],[0],[1.2345710997469723],['target'],04,001,2024-10-10_12h40.11.041,Visual Search,2024.2.1post4,59.880813269782955,2024-10-10 12h40.24.749319 +0530,
37,0,37,[-0.08611111111111111],[0.08981481481481482],[1],[0],[0],[1.319626099895686],['target'],37,0,37,0,62.41057760035619,,5,62.40140670025721,62.41057760035619,62.41057760035619,0.01394810015335679,63.72154640033841,[-0.08611111111111111],[0.08981481481481482],[1],[0],[0],[1.319626099895686],['target'],04,001,2024-10-10_12h40.11.041,Visual Search,2024.2.1post4,59.880813269782955,2024-10-10 12h40.24.749319 +0530,
38,0,38,[0.06388888888888888],[0.2972222222222222],[1],[0],[0],[1.1495002997107804],['target'],38,0,38,0,63.74874520022422,,5,63.73780720029026,63.74874520022422,63.74874520022422,0.016043999698013067,64.88772709993646,[0.06388888888888888],[0.2972222222222222],[1],[0],[0],[1.1495002997107804],['target'],04,001,2024-10-10_12h40.11.041,Visual Search,2024.2.1post4,59.880813269782955,2024-10-10 12h40.24.749319 +0530,
39,0,39,[0.18518518518518517],[0.3787037037037037],[1],[0],[0],[1.1016060998663306],['target'],39,0,39,0,64.91264330036938,,5,64.9026822000742,64.91264330036938,64.91264330036938,0.014826699625700712,66.00475560035557,[0.18518518518518517],[0.3787037037037037],[1],[0],[0],[1.1016060998663306],['target'],04,001,2024-10-10_12h40.11.041,Visual Search,2024.2.1post4,59.880813269782955,2024-10-10 12h40.24.749319 +0530,
40,0,40,[0.31666666666666665],[-0.06018518518518518],[1],[0],[0],[1.2535888003185391],['target'],40,0,40,0,66.0608799001202,,10,66.04241640027612,66.0608799001202,66.0608799001202,0.0375173999927938,67.29645340004936,[0.31666666666666665],[-0.06018518518518518],[1],[0],[0],[1.2535888003185391],['target'],04,001,2024-10-10_12h40.11.041,Visual Search,2024.2.1post4,59.880813269782955,2024-10-10 12h40.24.749319 +0530,
41,0,41,[-0.21944444444444444],[0.4722222222222222],[1],[0],[0],[1.3679478000849485],['target'],41,0,41,0,67.32069180021062,,5,67.31160030001774,67.32069180021062,67.32069180021062,0.014985800255089998,68.67994690034539,[-0.21944444444444444],[0.4722222222222222],[1],[0],[0],[1.3679478000849485],['target'],04,001,2024-10-10_12h40.11.041,Visual Search,2024.2.1post4,59.880813269782955,2024-10-10 12h40.24.749319 +0530,
42,0,42,[0.15185185185185185],[-0.1824074074074074],[1],[0],[0],[1.601601899601519],['target'],42,0,42,0,68.70338620012626,,5,68.69428740022704,68.70338620012626,68.70338620012626,0.014219099655747414,70.29637010022998,[0.15185185185185185],[-0.1824074074074074],[1],[0],[0],[1.601601899601519],['target'],04,001,2024-10-10_12h40.11.041,Visual Search,2024.2.1post4,59.880813269782955,2024-10-10 12h40.24.749319 +0530,
43,0,43,[-0.1787037037037037],[-0.21481481481481482],[1],[0],[0],[2.7038453998975456],['target'],43,0,43,0,70.34211760014296,,10,70.3294492000714,70.34211760014296,70.34211760014296,0.032947400119155645,73.03377920016646,[-0.1787037037037037],[-0.21481481481481482],[1],[0],[0],[2.7038453998975456],['target'],04,001,2024-10-10_12h40.11.041,Visual Search,2024.2.1post4,59.880813269782955,2024-10-10 12h40.24.749319 +0530,
44,0,44,[-0.2638888888888889],[0.43796296296296294],[1],[0],[0],[1.7332954998128116],['target'],44,0,44,0,73.05877549992874,,5,73.05004720017314,73.05877549992874,73.05877549992874,0.01603379985317588,74.78374710027128,[-0.2638888888888889],[0.43796296296296294],[1],[0],[0],[1.7332954998128116],['target'],04,001,2024-10-10_12h40.11.041,Visual Search,2024.2.1post4,59.880813269782955,2024-10-10 12h40.24.749319 +0530,
45,0,45,[0.4212962962962963],[-0.34629629629629627],[1],[0],[0],[3.2106536999344826],['target'],45,0,45,0,74.82568060001358,,10,74.81066510034725,74.82568060001358,74.82568060001358,0.026790999807417393,78.0217869002372,[0.4212962962962963],[-0.34629629629629627],[1],[0],[0],[3.2106536999344826],['target'],04,001,2024-10-10_12h40.11.041,Visual Search,2024.2.1post4,59.880813269782955,2024-10-10 12h40.24.749319 +0530,
46,0,46,[0.25833333333333336],[0.1388888888888889],[1],[0],[0],[1.320867800153792],['target'],46,0,46,0,78.06895390013233,,10,78.0544560002163,78.06895390013233,78.06895390013233,0.0325080999173224,79.3759053000249,[0.25833333333333336],[0.1388888888888889],[1],[0],[0],[1.320867800153792],['target'],04,001,2024-10-10_12h40.11.041,Visual Search,2024.2.1post4,59.880813269782955,2024-10-10 12h40.24.749319 +0530,
47,0,47,[0.3],[-0.19814814814814816],[1],[0],[0],[1.232255999930203],['target'],47,0,47,0,79.40227110031992,,5,79.39294990012422,79.40227110031992,79.40227110031992,0.016716199927031994,80.62561980029568,[0.3],[-0.19814814814814816],[1],[0],[0],[1.232255999930203],['target'],04,001,2024-10-10_12h40.11.041,Visual Search,2024.2.1post4,59.880813269782955,2024-10-10 12h40.24.749319 +0530,
48,0,48,[0.053703703703703705],[0.30092592592592593],[1],[0],[0],[1.2007667999714613],['target'],48,0,48,0,80.6496460000053,,5,80.64058670029044,80.6496460000053,80.6496460000053,0.014797599986195564,81.8417739002034,[0.053703703703703705],[0.30092592592592593],[1],[0],[0],[1.2007667999714613],['target'],04,001,2024-10-10_12h40.11.041,Visual Search,2024.2.1post4,59.880813269782955,2024-10-10 12h40.24.749319 +0530,
49,0,49,[0.1388888888888889],[-0.44722222222222224],[1],[0],[0],[1.552689699921757],['target'],49,0,49,0,81.86508790031075,,5,81.85561760002747,81.86508790031075,81.86508790031075,0.013710500206798315,83.4088211003691,[0.1388888888888889],[-0.44722222222222224],[1],[0],[0],[1.552689699921757],['target'],04,001,2024-10-10_12h40.11.041,Visual Search,2024.2.1post4,59.880813269782955,2024-10-10 12h40.24.749319 +0530,
50,0,50,[0.05],[0.03333333333333333],[1],[0],[0],[1.5932293999940157],['target'],50,0,50,0,83.45008820015937,,10,83.43565160036087,83.45008820015937,83.45008820015937,0.026699900161474943,85.0293229999952,[0.05],[0.03333333333333333],[1],[0],[0],[1.5932293999940157],['target'],04,001,2024-10-10_12h40.11.041,Visual Search,2024.2.1post4,59.880813269782955,2024-10-10 12h40.24.749319 +0530,
51,0,51,[0.1398148148148148],[0.39351851851851855],[1],[0],[0],[1.60295519977808],['target'],51,0,51,0,85.05214630020782,,5,85.04317900026217,85.05214630020782,85.05214630020782,0.013694899622350931,86.64659020025283,[0.1398148148148148],[0.39351851851851855],[1],[0],[0],[1.60295519977808],['target'],04,001,2024-10-10_12h40.11.041,Visual Search,2024.2.1post4,59.880813269782955,2024-10-10 12h40.24.749319 +0530,
52,0,52,[0.012037037037037037],[0.26296296296296295],[1],[0],[0],[1.0553463003598154],['target'],52,0,52,0,86.69041160028428,,10,86.67765500023961,86.69041160028428,86.69041160028428,0.03094039997085929,87.73346280027181,[0.012037037037037037],[0.26296296296296295],[1],[0],[0],[1.0553463003598154],['target'],04,001,2024-10-10_12h40.11.041,Visual Search,2024.2.1post4,59.880813269782955,2024-10-10 12h40.24.749319 +0530,
53,0,53,[0.08333333333333333],[-0.3861111111111111],[1],[0],[0],[1.6514740996062756],['target'],53,0,53,0,87.75642060022801,,5,87.74754740018398,87.75642060022801,87.75642060022801,0.013925900217145681,89.39942370029166,[0.08333333333333333],[-0.3861111111111111],[1],[0],[0],[1.6514740996062756],['target'],04,001,2024-10-10_12h40.11.041,Visual Search,2024.2.1post4,59.880813269782955,2024-10-10 12h40.24.749319 +0530,
54,0,54,"[0.07407407407407407, 0.06666666666666667]","[-0.3972222222222222, -0.3962962962962963]","[1, 1]","[0, 0]","[0, 0]","[1.4412775002419949, 2.2071597003377974]","[None, 'target']",54,0,54,0,89.44224190013483,,10,89.42893759999424,89.44224190013483,89.44224190013483,0.02939429972320795,91.63652050029486,"[0.07407407407407407, 0.06666666666666667]","[-0.3972222222222222, -0.3962962962962963]","[1, 1]","[0, 0]","[0, 0]","[1.4412775002419949, 2.2071597003377974]","[None, 'target']",04,001,2024-10-10_12h40.11.041,Visual Search,2024.2.1post4,59.880813269782955,2024-10-10 12h40.24.749319 +0530,
55,0,55,[0.062037037037037036],[-0.1675925925925926],[1],[0],[0],[1.1089137000963092],['target'],55,0,55,0,91.67936700023711,,10,91.66585580026731,91.67936700023711,91.67936700023711,0.02914399979636073,92.77525210008025,[0.062037037037037036],[-0.1675925925925926],[1],[0],[0],[1.1089137000963092],['target'],04,001,2024-10-10_12h40.11.041,Visual Search,2024.2.1post4,59.880813269782955,2024-10-10 12h40.24.749319 +0530,
56,0,56,"[0.34814814814814815, 0.0]","[-0.4009259259259259, 0.3712962962962963]","[1, 1]","[0, 0]","[0, 0]","[2.0266681001521647, 3.1757519003003836]","[None, 'target']",56,0,56,0,92.81691300030798,,10,92.80222700024024,92.81691300030798,92.81691300030798,0.02681639976799488,95.97839120030403,"[0.34814814814814815, 0.0]","[-0.4009259259259259, 0.3712962962962963]","[1, 1]","[0, 0]","[0, 0]","[2.0266681001521647, 3.1757519003003836]","[None, 'target']",04,001,2024-10-10_12h40.11.041,Visual Search,2024.2.1post4,59.880813269782955,2024-10-10 12h40.24.749319 +0530,
57,0,57,[0.22777777777777777],[0.23796296296296296],[1],[0],[0],[1.0683086002245545],['target'],57,0,57,0,96.00403870036826,,5,95.99392569996417,96.00403870036826,96.00403870036826,0.015360800083726645,97.06270699994639,[0.22777777777777777],[0.23796296296296296],[1],[0],[0],[1.0683086002245545],['target'],04,001,2024-10-10_12h40.11.041,Visual Search,2024.2.1post4,59.880813269782955,2024-10-10 12h40.24.749319 +0530,
58,0,58,"[0.4351851851851852, 0.45092592592592595]","[-0.30833333333333335, -0.31851851851851853]","[1, 1]","[0, 0]","[0, 0]","[1.3671125997789204, 2.2494254000484943]","[None, 'target']",58,0,58,0,97.08814370026812,,5,97.07901930017397,97.08814370026812,97.08814370026812,0.016091899946331978,99.32885499997064,"[0.4351851851851852, 0.45092592592592595]","[-0.30833333333333335, -0.31851851851851853]","[1, 1]","[0, 0]","[0, 0]","[1.3671125997789204, 2.2494254000484943]","[None, 'target']",04,001,2024-10-10_12h40.11.041,Visual Search,2024.2.1post4,59.880813269782955,2024-10-10 12h40.24.749319 +0530,
59,0,59,[0.1787037037037037],[-0.44907407407407407],[1],[0],[0],[2.7931339000351727],['target'],59,0,59,0,99.37056320020929,,10,99.35651180008426,99.37056320020929,99.37056320020929,0.0274983998388052,102.15009850030765,[0.1787037037037037],[-0.44907407407407407],[1],[0],[0],[2.7931339000351727],['target'],04,001,2024-10-10_12h40.11.041,Visual Search,2024.2.1post4,59.880813269782955,2024-10-10 12h40.24.749319 +0530,
60,0,60,[-0.30462962962962964],[0.33611111111111114],[1],[0],[0],[2.4822542001493275],['target'],60,0,60,0,102.17693060031161,,5,102.16722900001332,102.17693060031161,102.17693060031161,0.01692180009558797,104.64990440011024,[-0.30462962962962964],[0.33611111111111114],[1],[0],[0],[2.4822542001493275],['target'],04,001,2024-10-10_12h40.11.041,Visual Search,2024.2.1post4,59.880813269782955,2024-10-10 12h40.24.749319 +0530,
61,0,61,[-0.4287037037037037],[0.33425925925925926],[1],[0],[0],[0.9059301996603608],['target'],61,0,61,0,104.69409890007228,,10,104.6811598003842,104.69409890007228,104.69409890007228,0.031091799959540367,105.58760460000485,[-0.4287037037037037],[0.33425925925925926],[1],[0],[0],[0.9059301996603608],['target'],04,001,2024-10-10_12h40.11.041,Visual Search,2024.2.1post4,59.880813269782955,2024-10-10 12h40.24.749319 +0530,
62,0,62,[-0.4962962962962963],[-0.2722222222222222],[1],[0],[0],[2.1222383002750576],['target'],62,0,62,0,105.63351069996133,,10,105.61916020000353,105.63351069996133,105.63351069996133,0.03128480026498437,107.74181210016832,[-0.4962962962962963],[-0.2722222222222222],[1],[0],[0],[2.1222383002750576],['target'],04,001,2024-10-10_12h40.11.041,Visual Search,2024.2.1post4,59.880813269782955,2024-10-10 12h40.24.749319 +0530,
63,0,63,[-0.10555555555555556],[0.5],[1],[0],[0],[1.82433500001207],['target'],63,0,63,0,107.78396790008992,,10,107.77064160024747,107.78396790008992,107.78396790008992,0.02862589992582798,109.59544390020892,[-0.10555555555555556],[0.5],[1],[0],[0],[1.82433500001207],['target'],04,001,2024-10-10_12h40.11.041,Visual Search,2024.2.1post4,59.880813269782955,2024-10-10 12h40.24.749319 +0530,
64,0,64,[-0.4027777777777778],[0.3490740740740741],[1],[0],[0],[1.7196301999501884],['target'],64,0,64,0,109.64246120024472,,10,109.62955430010334,109.64246120024472,109.64246120024472,0.03380279988050461,111.34956620028242,[-0.4027777777777778],[0.3490740740740741],[1],[0],[0],[1.7196301999501884],['target'],04,001,2024-10-10_12h40.11.041,Visual Search,2024.2.1post4,59.880813269782955,2024-10-10 12h40.24.749319 +0530,
65,0,65,[-0.03888888888888889],[-0.13425925925925927],[1],[0],[0],[1.4785943999886513],['target'],65,0,65,0,111.38840570021421,,10,111.37531560007483,111.38840570021421,111.38840570021421,0.025594899896532297,112.8543998003006,[-0.03888888888888889],[-0.13425925925925927],[1],[0],[0],[1.4785943999886513],['target'],04,001,2024-10-10_12h40.11.041,Visual Search,2024.2.1post4,59.880813269782955,2024-10-10 12h40.24.749319 +0530,
66,0,66,[-0.024074074074074074],[0.23796296296296296],[1],[0],[0],[1.1087683998048306],['target'],66,0,66,0,112.89549760008231,,10,112.88266510004178,112.89549760008231,112.89549760008231,0.027984699700027704,113.99189110007137,[-0.024074074074074074],[0.23796296296296296],[1],[0],[0],[1.1087683998048306],['target'],04,001,2024-10-10_12h40.11.041,Visual Search,2024.2.1post4,59.880813269782955,2024-10-10 12h40.24.749319 +0530,
67,0,67,[-0.2796296296296296],[-0.08703703703703704],[1],[0],[0],[1.1933180000633001],['target'],67,0,67,0,114.03137460025027,,10,114.01868240023032,114.03137460025027,114.03137460025027,0.026637599803507328,115.21251909993589,[-0.2796296296296296],[-0.08703703703703704],[1],[0],[0],[1.1933180000633001],['target'],04,001,2024-10-10_12h40.11.041,Visual Search,2024.2.1post4,59.880813269782955,2024-10-10 12h40.24.749319 +0530,
68,0,68,[-0.40555555555555556],[0.20833333333333334],[1],[0],[0],[1.2071755998767912],['target'],68,0,68,0,115.25428810017183,,10,115.24185980018228,115.25428810017183,115.25428810017183,0.02913629962131381,116.44957690034062,[-0.40555555555555556],[0.20833333333333334],[1],[0],[0],[1.2071755998767912],['target'],04,001,2024-10-10_12h40.11.041,Visual Search,2024.2.1post4,59.880813269782955,2024-10-10 12h40.24.749319 +0530,
69,0,69,[0.21481481481481482],[-0.32685185185185184],[1],[0],[0],[1.2769844001159072],['target'],69,0,69,0,116.48941399995238,,10,116.4766477001831,116.48941399995238,116.48941399995238,0.02681539999321103,117.75408260012046,[0.21481481481481482],[-0.32685185185185184],[1],[0],[0],[1.2769844001159072],['target'],04,001,2024-10-10_12h40.11.041,Visual Search,2024.2.1post4,59.880813269782955,2024-10-10 12h40.24.749319 +0530,
70,0,70,[-0.025925925925925925],[-0.05277777777777778],[1],[0],[0],[1.6774416002444923],['target'],70,0,70,0,117.7928526001051,,10,117.78027930017561,117.7928526001051,117.7928526001051,0.026037300005555153,119.4581667999737,[-0.025925925925925925],[-0.05277777777777778],[1],[0],[0],[1.6774416002444923],['target'],04,001,2024-10-10_12h40.11.041,Visual Search,2024.2.1post4,59.880813269782955,2024-10-10 12h40.24.749319 +0530,
71,0,71,[0.4083333333333333],[-0.25462962962962965],[1],[0],[0],[1.8209650996141136],['target'],71,0,71,0,119.50383920036256,,10,119.49095829995349,119.50383920036256,119.50383920036256,0.032643700018525124,121.31234579999,[0.4083333333333333],[-0.25462962962962965],[1],[0],[0],[1.8209650996141136],['target'],04,001,2024-10-10_12h40.11.041,Visual Search,2024.2.1post4,59.880813269782955,2024-10-10 12h40.24.749319 +0530,
72,0,72,[-0.022222222222222223],[0.2972222222222222],[1],[0],[0],[2.7082929997704923],['target'],72,0,72,0,121.35394780011848,,10,121.34120200015604,121.35394780011848,121.35394780011848,0.028642499819397926,124.04990800004452,[-0.022222222222222223],[0.2972222222222222],[1],[0],[0],[2.7082929997704923],['target'],04,001,2024-10-10_12h40.11.041,Visual Search,2024.2.1post4,59.880813269782955,2024-10-10 12h40.24.749319 +0530,
73,0,73,[-0.43425925925925923],[-0.18055555555555555],[1],[0],[0],[2.4172283997759223],['target'],73,0,73,0,124.07481720019132,,5,124.06558000016958,124.07481720019132,124.07481720019132,0.015458000358194113,126.48324100021273,[-0.43425925925925923],[-0.18055555555555555],[1],[0],[0],[2.4172283997759223],['target'],04,001,2024-10-10_12h40.11.041,Visual Search,2024.2.1post4,59.880813269782955,2024-10-10 12h40.24.749319 +0530,
74,0,74,[0.05185185185185185],[-0.38796296296296295],[1],[0],[0],[1.6195610999129713],['target'],74,0,74,0,126.52981820004061,,10,126.51685420004651,126.52981820004061,126.52981820004061,0.03345149988308549,128.13682499993593,[0.05185185185185185],[-0.38796296296296295],[1],[0],[0],[1.6195610999129713],['target'],04,001,2024-10-10_12h40.11.041,Visual Search,2024.2.1post4,59.880813269782955,2024-10-10 12h40.24.749319 +0530,
75,0,75,[-0.11574074074074074],[-0.3861111111111111],[1],[0],[0],[1.2435295996256173],['target'],75,0,75,0,128.17634170036763,,10,128.16394700016826,128.17634170036763,128.17634170036763,0.026965499855577946,129.40793870016932,[-0.11574074074074074],[-0.3861111111111111],[1],[0],[0],[1.2435295996256173],['target'],04,001,2024-10-10_12h40.11.041,Visual Search,2024.2.1post4,59.880813269782955,2024-10-10 12h40.24.749319 +0530,
76,0,76,[-0.17314814814814813],[-0.27314814814814814],[1],[0],[0],[1.619747499935329],['target'],76,0,76,0,129.4300464000553,,5,129.42116620019078,129.4300464000553,129.4300464000553,0.013001100160181522,131.04130920022726,[-0.17314814814814813],[-0.27314814814814814],[1],[0],[0],[1.619747499935329],['target'],04,001,2024-10-10_12h40.11.041,Visual Search,2024.2.1post4,59.880813269782955,2024-10-10 12h40.24.749319 +0530,
77,0,77,[0.39814814814814814],[-0.21296296296296297],[1],[0],[0],[1.7017208999022841],['target'],77,0,77,0,131.06450370000675,,5,131.05552039993927,131.06450370000675,131.06450370000675,0.014087200164794922,132.75770510034636,[0.39814814814814814],[-0.21296296296296297],[1],[0],[0],[1.7017208999022841],['target'],04,001,2024-10-10_12h40.11.041,Visual Search,2024.2.1post4,59.880813269782955,2024-10-10 12h40.24.749319 +0530,
78,0,78,[-0.4064814814814815],[0.012037037037037037],[1],[0],[0],[2.5199571000412107],['target'],78,0,78,0,132.80343100009486,,10,132.7910250001587,132.80343100009486,132.80343100009486,0.03316059987992048,135.3114144001156,[-0.4064814814814815],[0.012037037037037037],[1],[0],[0],[2.5199571000412107],['target'],04,001,2024-10-10_12h40.11.041,Visual Search,2024.2.1post4,59.880813269782955,2024-10-10 12h40.24.749319 +0530,
79,0,79,[-0.37777777777777777],[0.44537037037037036],[1],[0],[0],[2.144641200080514],['target'],79,0,79,0,135.35073440009728,,10,135.33792340010405,135.35073440009728,135.35073440009728,0.026352200191468,137.48302650032565,[-0.37777777777777777],[0.44537037037037036],[1],[0],[0],[2.144641200080514],['target'],04,001,2024-10-10_12h40.11.041,Visual Search,2024.2.1post4,59.880813269782955,2024-10-10 12h40.24.749319 +0530,
80,0,80,[0.03611111111111111],[0.09444444444444444],[1],[0],[0],[1.2026569000445306],['target'],80,0,80,0,137.5301769003272,,10,137.51710200030357,137.5301769003272,137.5301769003272,0.033875600434839725,138.72029410023242,[0.03611111111111111],[0.09444444444444444],[1],[0],[0],[1.2026569000445306],['target'],04,001,2024-10-10_12h40.11.041,Visual Search,2024.2.1post4,59.880813269782955,2024-10-10 12h40.24.749319 +0530,
81,0,81,[0.0824074074074074],[0.3537037037037037],[1],[0],[0],[1.2048722002655268],['target'],81,0,81,0,138.76462720008567,,10,138.75155480019748,138.76462720008567,138.76462720008567,0.03104480030015111,139.95688780024648,[0.0824074074074074],[0.3537037037037037],[1],[0],[0],[1.2048722002655268],['target'],04,001,2024-10-10_12h40.11.041,Visual Search,2024.2.1post4,59.880813269782955,2024-10-10 12h40.24.749319 +0530,
82,0,82,[-0.3675925925925926],[-0.30277777777777776],[1],[0],[0],[1.6534409001469612],['target'],82,0,82,0,139.9793954002671,,5,139.9705775002949,139.9793954002671,139.9793954002671,0.013416300062090158,141.62445080000907,[-0.3675925925925926],[-0.30277777777777776],[1],[0],[0],[1.6534409001469612],['target'],04,001,2024-10-10_12h40.11.041,Visual Search,2024.2.1post4,59.880813269782955,2024-10-10 12h40.24.749319 +0530,
83,0,83,[-0.44814814814814813],[0.004629629629629629],[1],[0],[0],[2.494350300170481],['target'],83,0,83,0,141.66370610008016,,10,141.65084160026163,141.66370610008016,141.66370610008016,0.026263500098139048,144.1455761003308,[-0.44814814814814813],[0.004629629629629629],[1],[0],[0],[2.494350300170481],['target'],04,001,2024-10-10_12h40.11.041,Visual Search,2024.2.1post4,59.880813269782955,2024-10-10 12h40.24.749319 +0530,
84,0,84,[0.22314814814814815],[0.42685185185185187],[1],[0],[0],[1.2678947001695633],['target'],84,0,84,0,144.1693718000315,,5,144.16010869992897,144.1693718000315,144.1693718000315,0.014387399889528751,145.42841450031847,[0.22314814814814815],[0.42685185185185187],[1],[0],[0],[1.2678947001695633],['target'],04,001,2024-10-10_12h40.11.041,Visual Search,2024.2.1post4,59.880813269782955,2024-10-10 12h40.24.749319 +0530,
85,0,85,[-0.225],[0.23703703703703705],[1],[0],[0],[1.6676016002893448],['target'],85,0,85,0,145.4525354001671,,5,145.44354250002652,145.4525354001671,145.4525354001671,0.014953599777072668,147.11156779993325,[-0.225],[0.23703703703703705],[1],[0],[0],[1.6676016002893448],['target'],04,001,2024-10-10_12h40.11.041,Visual Search,2024.2.1post4,59.880813269782955,2024-10-10 12h40.24.749319 +0530,
86,0,86,[0.3472222222222222],[0.21388888888888888],[1],[0],[0],[1.2097845999523997],['target'],86,0,86,0,147.15202540019527,,10,147.13898180006072,147.15202540019527,147.15202540019527,0.02728829998522997,148.3491936000064,[0.3472222222222222],[0.21388888888888888],[1],[0],[0],[1.2097845999523997],['target'],04,001,2024-10-10_12h40.11.041,Visual Search,2024.2.1post4,59.880813269782955,2024-10-10 12h40.24.749319 +0530,
87,0,87,[0.012037037037037037],[0.40370370370370373],[1],[0],[0],[1.0514391004107893],['target'],87,0,87,0,148.37225570017472,,5,148.36340060038492,148.37225570017472,148.37225570017472,0.014059099834412336,149.41545490035787,[0.012037037037037037],[0.40370370370370373],[1],[0],[0],[1.0514391004107893],['target'],04,001,2024-10-10_12h40.11.041,Visual Search,2024.2.1post4,59.880813269782955,2024-10-10 12h40.24.749319 +0530,
88,0,88,[-0.027777777777777776],[0.15648148148148147],[1],[0],[0],[1.0166317000985146],['target'],88,0,88,0,149.44129039999098,,5,149.43213229998946,149.44129039999098,149.44129039999098,0.016491299960762262,150.44916880037636,[-0.027777777777777776],[0.15648148148148147],[1],[0],[0],[1.0166317000985146],['target'],04,001,2024-10-10_12h40.11.041,Visual Search,2024.2.1post4,59.880813269782955,2024-10-10 12h40.24.749319 +0530,
89,0,89,[0.16111111111111112],[-0.023148148148148147],[1],[0],[0],[1.2249989002011716],['target'],89,0,89,0,150.49050249997526,,10,150.47789670014754,150.49050249997526,150.49050249997526,0.02861119993031025,151.703327300027,[0.16111111111111112],[-0.023148148148148147],[1],[0],[0],[1.2249989002011716],['target'],04,001,2024-10-10_12h40.11.041,Visual Search,2024.2.1post4,59.880813269782955,2024-10-10 12h40.24.749319 +0530,
90,0,90,[-0.1037037037037037],[-0.2611111111111111],[1],[0],[0],[1.903208500239998],['target'],90,0,90,0,151.74990890035406,,10,151.73714310023934,151.74990890035406,151.74990890035406,0.03360359976068139,153.64085880015045,[-0.1037037037037037],[-0.2611111111111111],[1],[0],[0],[1.903208500239998],['target'],04,001,2024-10-10_12h40.11.041,Visual Search,2024.2.1post4,59.880813269782955,2024-10-10 12h40.24.749319 +0530,
91,0,91,[-0.13425925925925927],[-0.44351851851851853],[1],[0],[0],[1.2866818001493812],['target'],91,0,91,0,153.6636235001497,,5,153.6542850001715,153.6636235001497,153.6636235001497,0.013257500249892473,154.9413872002624,[-0.13425925925925927],[-0.44351851851851853],[1],[0],[0],[1.2866818001493812],['target'],04,001,2024-10-10_12h40.11.041,Visual Search,2024.2.1post4,59.880813269782955,2024-10-10 12h40.24.749319 +0530,
92,0,92,[0.15833333333333333],[-0.2564814814814815],[1],[0],[0],[1.70967789972201],['target'],92,0,92,0,154.98294160002843,,10,154.96848700009286,154.98294160002843,154.98294160002843,0.02693379996344447,156.67866320023313,[0.15833333333333333],[-0.2564814814814815],[1],[0],[0],[1.70967789972201],['target'],04,001,2024-10-10_12h40.11.041,Visual Search,2024.2.1post4,59.880813269782955,2024-10-10 12h40.24.749319 +0530,
93,0,93,[0.35],[0.1824074074074074],[1],[0],[0],[1.675959900021553],['target'],93,0,93,0,156.7177918003872,,10,156.70571430027485,156.7177918003872,156.7177918003872,0.026843099854886532,158.382113000378,[0.35],[0.1824074074074074],[1],[0],[0],[1.675959900021553],['target'],04,001,2024-10-10_12h40.11.041,Visual Search,2024.2.1post4,59.880813269782955,2024-10-10 12h40.24.749319 +0530,
94,0,94,[0.48148148148148145],[-0.18425925925925926],[1],[0],[0],[2.043892600107938],['target'],94,0,94,0,158.42070440016687,,10,158.40835290029645,158.42070440016687,158.42070440016687,0.026012900285422802,160.45275240018964,[0.48148148148148145],[-0.18425925925925926],[1],[0],[0],[2.043892600107938],['target'],04,001,2024-10-10_12h40.11.041,Visual Search,2024.2.1post4,59.880813269782955,2024-10-10 12h40.24.749319 +0530,
95,0,95,[0.45185185185185184],[0.24259259259259258],[1],[0],[0],[1.8675783001817763],['target'],95,0,95,0,160.47757560014725,,5,160.4682146999985,160.47757560014725,160.47757560014725,0.015191799961030483,162.3363334001042,[0.45185185185185184],[0.24259259259259258],[1],[0],[0],[1.8675783001817763],['target'],04,001,2024-10-10_12h40.11.041,Visual Search,2024.2.1post4,59.880813269782955,2024-10-10 12h40.24.749319 +0530,
96,0,96,[-0.38055555555555554],[-0.2777777777777778],[1],[0],[0],[1.367846000008285],['target'],96,0,96,0,162.3606043001637,,5,162.35146189993247,162.3606043001637,162.3606043001637,0.014963300433009863,163.71971650002524,[-0.38055555555555554],[-0.2777777777777778],[1],[0],[0],[1.367846000008285],['target'],04,001,2024-10-10_12h40.11.041,Visual Search,2024.2.1post4,59.880813269782955,2024-10-10 12h40.24.749319 +0530,
97,0,97,[-0.42314814814814816],[0.3907407407407407],[1],[0],[0],[1.7207585000433028],['target'],97,0,97,0,163.7646002001129,,10,163.75262790033594,163.7646002001129,163.7646002001129,0.03279449976980686,165.47397600021213,[-0.42314814814814816],[0.3907407407407407],[1],[0],[0],[1.7207585000433028],['target'],04,001,2024-10-10_12h40.11.041,Visual Search,2024.2.1post4,59.880813269782955,2024-10-10 12h40.24.749319 +0530,
98,0,98,"[0.325, 0.36018518518518516]","[0.08611111111111111, 0.12129629629629629]","[1, 1]","[0, 0]","[0, 0]","[1.101306099910289, 1.817193899769336]","[None, 'target']",98,0,98,0,165.5883027999662,,10,165.57530240016058,165.5883027999662,165.5883027999662,0.10109869996085763,167.39300290029496,"[0.325, 0.36018518518518516]","[0.08611111111111111, 0.12129629629629629]","[1, 1]","[0, 0]","[0, 0]","[1.101306099910289, 1.817193899769336]","[None, 'target']",04,001,2024-10-10_12h40.11.041,Visual Search,2024.2.1post4,59.880813269782955,2024-10-10 12h40.24.749319 +0530,
99,0,99,[0.38981481481481484],[-0.2611111111111111],[1],[0],[0],[1.968536099884659],['target'],99,0,99,0,167.415892300196,,5,167.40710210008547,167.415892300196,167.415892300196,0.013740700203925371,169.37606850033626,[0.38981481481481484],[-0.2611111111111111],[1],[0],[0],[1.968536099884659],['target'],04,001,2024-10-10_12h40.11.041,Visual Search,2024.2.1post4,59.880813269782955,2024-10-10 12h40.24.749319 +0530,
100,0,100,[0.49444444444444446],[-0.26666666666666666],[1],[0],[0],[2.026228600181639],['target'],100,0,100,0,169.4164920002222,,10,169.4039521003142,169.4164920002222,169.4164920002222,0.027710099704563618,171.43067600019276,[0.49444444444444446],[-0.26666666666666666],[1],[0],[0],[2.026228600181639],['target'],04,001,2024-10-10_12h40.11.041,Visual Search,2024.2.1post4,59.880813269782955,2024-10-10 12h40.24.749319 +0530,
101,0,101,[0.05],[-0.125],[1],[0],[0],[1.3079623999074101],['target'],101,0,101,0,171.4729635999538,,10,171.45968600036576,171.4729635999538,171.4729635999538,0.028652200009673834,172.76813870016485,[0.05],[-0.125],[1],[0],[0],[1.3079623999074101],['target'],04,001,2024-10-10_12h40.11.041,Visual Search,2024.2.1post4,59.880813269782955,2024-10-10 12h40.24.749319 +0530,
102,0,102,[-0.4527777777777778],[-0.08055555555555556],[1],[0],[0],[1.6322559001855552],['target'],102,0,102,0,172.79460050025955,,5,172.78561970032752,172.79460050025955,172.79460050025955,0.01726169977337122,174.41825600015,[-0.4527777777777778],[-0.08055555555555556],[1],[0],[0],[1.6322559001855552],['target'],04,001,2024-10-10_12h40.11.041,Visual Search,2024.2.1post4,59.880813269782955,2024-10-10 12h40.24.749319 +0530,
103,0,103,[0.4111111111111111],[0.32222222222222224],[1],[0],[0],[3.7271505002863705],['target'],103,0,103,0,174.45733080012724,,10,174.4442818001844,174.45733080012724,174.45733080012724,0.025900099892169237,178.17190640000626,[0.4111111111111111],[0.32222222222222224],[1],[0],[0],[3.7271505002863705],['target'],04,001,2024-10-10_12h40.11.041,Visual Search,2024.2.1post4,59.880813269782955,2024-10-10 12h40.24.749319 +0530,
104,0,104,[0.1259259259259259],[0.15462962962962962],[1],[0],[0],[1.1103377998806536],['target'],104,0,104,0,178.2127843000926,,10,178.19951370032504,178.2127843000926,178.2127843000926,0.027459400240331888,179.31027680030093,[0.1259259259259259],[0.15462962962962962],[1],[0],[0],[1.1103377998806536],['target'],04,001,2024-10-10_12h40.11.041,Visual Search,2024.2.1post4,59.880813269782955,2024-10-10 12h40.24.749319 +0530,
105,0,105,[0.24444444444444444],[-0.23425925925925925],[1],[0],[0],[1.1009177002124488],['target'],105,0,105,0,179.33376690000296,,5,179.32444200012833,179.33376690000296,179.33376690000296,0.013923000078648329,180.42579460004345,[0.24444444444444444],[-0.23425925925925925],[1],[0],[0],[1.1009177002124488],['target'],04,001,2024-10-10_12h40.11.041,Visual Search,2024.2.1post4,59.880813269782955,2024-10-10 12h40.24.749319 +0530,
106,0,106,[0.09722222222222222],[-0.06851851851851852],[1],[0],[0],[1.0695593003183603],['target'],106,0,106,0,180.44836320029572,,5,180.43940349994227,180.44836320029572,180.44836320029572,0.013483900111168623,181.50941870035604,[0.09722222222222222],[-0.06851851851851852],[1],[0],[0],[1.0695593003183603],['target'],04,001,2024-10-10_12h40.11.041,Visual Search,2024.2.1post4,59.880813269782955,2024-10-10 12h40.24.749319 +0530,
107,0,107,[-0.23703703703703705],[0.41388888888888886],[1],[0],[0],[1.6241117999888957],['target'],107,0,107,0,181.5520933000371,,10,181.53953410033137,181.5520933000371,181.5520933000371,0.029929499607533216,183.16416980000213,[-0.23703703703703705],[0.41388888888888886],[1],[0],[0],[1.6241117999888957],['target'],04,001,2024-10-10_12h40.11.041,Visual Search,2024.2.1post4,59.880813269782955,2024-10-10 12h40.24.749319 +0530,
108,0,108,[0.20925925925925926],[0.06666666666666667],[1],[0],[0],[1.3223413997329772],['target'],108,0,108,0,183.2079597003758,,10,183.19494209997356,183.2079597003758,183.2079597003758,0.0306190000846982,184.517677300144,[0.20925925925925926],[0.06666666666666667],[1],[0],[0],[1.3223413997329772],['target'],04,001,2024-10-10_12h40.11.041,Visual Search,2024.2.1post4,59.880813269782955,2024-10-10 12h40.24.749319 +0530,
109,0,109,[0.20555555555555555],[-0.09907407407407408],[1],[0],[0],[1.0442335000261664],['target'],109,0,109,0,184.5561272003688,,10,184.54394609993324,184.5561272003688,184.5561272003688,0.026109999977052212,185.58856680011377,[0.20555555555555555],[-0.09907407407407408],[1],[0],[0],[1.0442335000261664],['target'],04,001,2024-10-10_12h40.11.041,Visual Search,2024.2.1post4,59.880813269782955,2024-10-10 12h40.24.749319 +0530,
110,0,110,[-0.2388888888888889],[-0.06759259259259259],[1],[0],[0],[1.560412099584937],['target'],110,0,110,0,185.62766150012612,,10,185.61531320028007,185.62766150012612,185.62766150012612,0.02659330004826188,187.1762538999319,[-0.2388888888888889],[-0.06759259259259259],[1],[0],[0],[1.560412099584937],['target'],04,001,2024-10-10_12h40.11.041,Visual Search,2024.2.1post4,59.880813269782955,2024-10-10 12h40.24.749319 +0530,
111,0,111,[-0.3351851851851852],[0.3731481481481482],[1],[0],[0],[1.7233389001339674],['target'],111,0,111,0,187.21845600008965,,10,187.20595230022445,187.21845600008965,187.21845600008965,0.029463999904692173,188.92970630014315,[-0.3351851851851852],[0.3731481481481482],[1],[0],[0],[1.7233389001339674],['target'],04,001,2024-10-10_12h40.11.041,Visual Search,2024.2.1post4,59.880813269782955,2024-10-10 12h40.24.749319 +0530,
112,0,112,[0.44907407407407407],[-0.39351851851851855],[1],[0],[0],[1.5018988996744156],['target'],112,0,112,0,188.95385910011828,,5,188.94464460015297,188.95385910011828,188.95385910011828,0.01478049997240305,190.44692490017042,[0.44907407407407407],[-0.39351851851851855],[1],[0],[0],[1.5018988996744156],['target'],04,001,2024-10-10_12h40.11.041,Visual Search,2024.2.1post4,59.880813269782955,2024-10-10 12h40.24.749319 +0530,
113,0,113,[-0.021296296296296296],[-0.0712962962962963],[1],[0],[0],[1.219287300016731],['target'],113,0,113,0,190.47031960031018,,5,190.4608403001912,190.47031960031018,190.47031960031018,0.01377910003066063,191.68059880007058,[-0.021296296296296296],[-0.0712962962962963],[1],[0],[0],[1.219287300016731],['target'],04,001,2024-10-10_12h40.11.041,Visual Search,2024.2.1post4,59.880813269782955,2024-10-10 12h40.24.749319 +0530,
114,0,114,[0.30648148148148147],[0.18981481481481483],[1],[0],[0],[1.474088499788195],['target'],114,0,114,0,191.72229580022395,,10,191.70957599999383,191.72229580022395,191.72229580022395,0.028824899811297655,193.18408160004765,[0.30648148148148147],[0.18981481481481483],[1],[0],[0],[1.474088499788195],['target'],04,001,2024-10-10_12h40.11.041,Visual Search,2024.2.1post4,59.880813269782955,2024-10-10 12h40.24.749319 +0530,
115,0,115,[-0.01574074074074074],[0.18981481481481483],[1],[0],[0],[1.3759341002441943],['target'],115,0,115,0,193.22456020023674,,10,193.21205360023305,193.22456020023674,193.22456020023674,0.02782109985128045,194.58844910003245,[-0.01574074074074074],[0.18981481481481483],[1],[0],[0],[1.3759341002441943],['target'],04,001,2024-10-10_12h40.11.041,Visual Search,2024.2.1post4,59.880813269782955,2024-10-10 12h40.24.749319 +0530,
116,0,116,[0.2740740740740741],[-0.37407407407407406],[1],[0],[0],[1.8603635001927614],['target'],116,0,116,0,194.628747000359,,10,194.61482090037316,194.628747000359,194.628747000359,0.026137799955904484,196.47572570014745,[0.2740740740740741],[-0.37407407407407406],[1],[0],[0],[1.8603635001927614],['target'],04,001,2024-10-10_12h40.11.041,Visual Search,2024.2.1post4,59.880813269782955,2024-10-10 12h40.24.749319 +0530,
117,0,117,[0.4824074074074074],[0.125],[1],[0],[0],[1.3930224999785423],['target'],117,0,117,0,196.51473799999803,,10,196.5024399003014,196.51473799999803,196.51473799999803,0.026469599921256304,197.89597640000284,[0.4824074074074074],[0.125],[1],[0],[0],[1.3930224999785423],['target'],04,001,2024-10-10_12h40.11.041,Visual Search,2024.2.1post4,59.880813269782955,2024-10-10 12h40.24.749319 +0530,
118,0,118,[0.2222222222222222],[0.36574074074074076],[1],[0],[0],[1.2569147003814578],['target'],118,0,118,0,197.93889290001243,,10,197.9263474000618,197.93889290001243,197.93889290001243,0.030223499983549118,199.1837061000988,[0.2222222222222222],[0.36574074074074076],[1],[0],[0],[1.2569147003814578],['target'],04,001,2024-10-10_12h40.11.041,Visual Search,2024.2.1post4,59.880813269782955,2024-10-10 12h40.24.749319 +0530,
119,0,119,[0.2351851851851852],[-0.1787037037037037],[1],[0],[0],[1.5953430002555251],['target'],119,0,119,0,199.2249497002922,,10,199.20968520035967,199.2249497002922,199.2249497002922,0.025826199911534786,200.8054309003055,[0.2351851851851852],[-0.1787037037037037],[1],[0],[0],[1.5953430002555251],['target'],04,001,2024-10-10_12h40.11.041,Visual Search,2024.2.1post4,59.880813269782955,2024-10-10 12h40.24.749319 +0530,
120,0,120,[0.08518518518518518],[0.49074074074074076],[1],[0],[0],[1.84964710008353],['target'],120,0,120,0,200.83080800017342,,5,200.82199590001255,200.83080800017342,200.83080800017342,0.016359299886971712,202.67210500035435,[0.08518518518518518],[0.49074074074074076],[1],[0],[0],[1.84964710008353],['target'],04,001,2024-10-10_12h40.11.041,Visual Search,2024.2.1post4,59.880813269782955,2024-10-10 12h40.24.749319 +0530,
121,0,121,[-0.12685185185185185],[0.49537037037037035],[1],[0],[0],[1.1981704998761415],['target'],121,0,121,0,202.69875970017165,,5,202.68916020030156,202.69875970017165,202.69875970017165,0.016890099737793207,203.88775300001726,[-0.12685185185185185],[0.49537037037037035],[1],[0],[0],[1.1981704998761415],['target'],04,001,2024-10-10_12h40.11.041,Visual Search,2024.2.1post4,59.880813269782955,2024-10-10 12h40.24.749319 +0530,
122,0,122,[-0.11203703703703703],[0.08703703703703704],[1],[0],[0],[1.3336088000796735],['target'],122,0,122,0,203.91313729994,,5,203.90390900010243,203.91313729994,203.91313729994,0.0159876998513937,205.23797690030187,[-0.11203703703703703],[0.08703703703703704],[1],[0],[0],[1.3336088000796735],['target'],04,001,2024-10-10_12h40.11.041,Visual Search,2024.2.1post4,59.880813269782955,2024-10-10 12h40.24.749319 +0530,
123,0,123,[0.14629629629629629],[-0.13240740740740742],[1],[0],[0],[1.5848071998916566],['target'],123,0,123,0,205.26146390009671,,5,205.2524784002453,205.26146390009671,205.26146390009671,0.014379199594259262,206.83770020026714,[0.14629629629629629],[-0.13240740740740742],[1],[0],[0],[1.5848071998916566],['target'],04,001,2024-10-10_12h40.11.041,Visual Search,2024.2.1post4,59.880813269782955,2024-10-10 12h40.24.749319 +0530,
124,0,124,"[-0.3351851851851852, -0.34074074074074073]","[-0.0787037037037037, -0.07592592592592592]","[1, 1]","[0, 0]","[0, 0]","[2.369648900348693, 3.035534800030291]","[None, 'target']",124,0,124,0,206.86037780018523,,5,206.8512451001443,206.86037780018523,206.86037780018523,0.013419799972325563,209.8872181000188,"[-0.3351851851851852, -0.34074074074074073]","[-0.0787037037037037, -0.07592592592592592]","[1, 1]","[0, 0]","[0, 0]","[2.369648900348693, 3.035534800030291]","[None, 'target']",04,001,2024-10-10_12h40.11.041,Visual Search,2024.2.1post4,59.880813269782955,2024-10-10 12h40.24.749319 +0530,
125,0,125,[-0.29074074074074074],[0.275],[1],[0],[0],[1.4276653998531401],['target'],125,0,125,0,209.92766650021076,,10,209.91388830030337,209.92766650021076,209.92766650021076,0.026440899819135666,211.34197070030496,[-0.29074074074074074],[0.275],[1],[0],[0],[1.4276653998531401],['target'],04,001,2024-10-10_12h40.11.041,Visual Search,2024.2.1post4,59.880813269782955,2024-10-10 12h40.24.749319 +0530,
126,0,126,[0.425],[-0.05092592592592592],[1],[0],[0],[1.8008657000027597],['target'],126,0,126,0,211.36723660025746,,5,211.35779740009457,211.36723660025746,211.36723660025746,0.01567870005965233,213.15910100005567,[0.425],[-0.05092592592592592],[1],[0],[0],[1.8008657000027597],['target'],04,001,2024-10-10_12h40.11.041,Visual Search,2024.2.1post4,59.880813269782955,2024-10-10 12h40.24.749319 +0530,
127,0,127,[-0.44537037037037036],[-0.13055555555555556],[1],[0],[0],[1.8775254003703594],['target'],127,0,127,0,213.19929110025987,,10,213.1854365002364,213.19929110025987,213.19929110025987,0.02620749967172742,215.06343160010874,[-0.44537037037037036],[-0.13055555555555556],[1],[0],[0],[1.8775254003703594],['target'],04,001,2024-10-10_12h40.11.041,Visual Search,2024.2.1post4,59.880813269782955,2024-10-10 12h40.24.749319 +0530,
128,0,128,[0.38796296296296295],[0.025],[1],[0],[0],[1.6853014999069273],['target'],128,0,128,0,215.08616510033607,,5,215.07696090033278,215.08616510033607,215.08616510033607,0.013369100168347359,216.76279650023207,[0.38796296296296295],[0.025],[1],[0],[0],[1.6853014999069273],['target'],04,001,2024-10-10_12h40.11.041,Visual Search,2024.2.1post4,59.880813269782955,2024-10-10 12h40.24.749319 +0530,
129,0,129,[-0.2],[-0.18981481481481483],[1],[0],[0],[1.326732600107789],['target'],129,0,129,0,216.80323620000854,,10,216.7905311002396,216.80323620000854,216.80323620000854,0.027598599903285503,218.11777430027723,[-0.2],[-0.18981481481481483],[1],[0],[0],[1.326732600107789],['target'],04,001,2024-10-10_12h40.11.041,Visual Search,2024.2.1post4,59.880813269782955,2024-10-10 12h40.24.749319 +0530,
130,0,130,"[-0.33240740740740743, -0.3212962962962963, -0.387037037037037]","[-0.3861111111111111, -0.4361111111111111, -0.22592592592592592]","[1, 1, 1]","[0, 0, 0]","[0, 0, 0]","[1.5635993001051247, 3.7474050000309944, 4.796959099825472]","[None, None, 'target']",130,0,130,0,218.14490030007437,,5,218.13554650032893,218.14490030007437,218.14490030007437,0.01741879992187023,222.93289070017636,"[-0.33240740740740743, -0.3212962962962963, -0.387037037037037]","[-0.3861111111111111, -0.4361111111111111, -0.22592592592592592]","[1, 1, 1]","[0, 0, 0]","[0, 0, 0]","[1.5635993001051247, 3.7474050000309944, 4.796959099825472]","[None, None, 'target']",04,001,2024-10-10_12h40.11.041,Visual Search,2024.2.1post4,59.880813269782955,2024-10-10 12h40.24.749319 +0530,
131,0,131,[0.2101851851851852],[0.25092592592592594],[1],[0],[0],[1.9926408999599516],['target'],131,0,131,0,222.97318990016356,,10,222.96056410018355,222.97318990016356,222.97318990016356,0.027502999641001225,224.9538796003908,[0.2101851851851852],[0.25092592592592594],[1],[0],[0],[1.9926408999599516],['target'],04,001,2024-10-10_12h40.11.041,Visual Search,2024.2.1post4,59.880813269782955,2024-10-10 12h40.24.749319 +0530,
132,0,132,[-0.2037037037037037],[0.37592592592592594],[1],[0],[0],[1.80836489982903],['target'],132,0,132,0,224.99599050031975,,10,224.98337960010394,224.99599050031975,224.99599050031975,0.02933829976245761,226.7922007003799,[-0.2037037037037037],[0.37592592592592594],[1],[0],[0],[1.80836489982903],['target'],04,001,2024-10-10_12h40.11.041,Visual Search,2024.2.1post4,59.880813269782955,2024-10-10 12h40.24.749319 +0530,
133,0,133,[0.41203703703703703],[0.19907407407407407],[1],[0],[0],[2.056927500292659],['target'],133,0,133,0,226.8349350001663,,10,226.82217830000445,226.8349350001663,226.8349350001663,0.0298207001760602,228.8795115002431,[0.41203703703703703],[0.19907407407407407],[1],[0],[0],[2.056927500292659],['target'],04,001,2024-10-10_12h40.11.041,Visual Search,2024.2.1post4,59.880813269782955,2024-10-10 12h40.24.749319 +0530,
134,0,134,[0.09351851851851851],[-0.14351851851851852],[1],[0],[0],[1.503016899805516],['target'],134,0,134,0,228.90252270037308,,5,228.89283540006727,228.90252270037308,228.90252270037308,0.013170199934393167,230.39639679994434,[0.09351851851851851],[-0.14351851851851852],[1],[0],[0],[1.503016899805516],['target'],04,001,2024-10-10_12h40.11.041,Visual Search,2024.2.1post4,59.880813269782955,2024-10-10 12h40.24.749319 +0530,
135,0,135,[0.06851851851851852],[0.11018518518518519],[1],[0],[0],[1.2832890003919601],['target'],135,0,135,0,230.42155650025234,,5,230.4122517001815,230.42155650025234,230.42155650025234,0.01578349992632866,231.6961843003519,[0.06851851851851852],[0.11018518518518519],[1],[0],[0],[1.2832890003919601],['target'],04,001,2024-10-10_12h40.11.041,Visual Search,2024.2.1post4,59.880813269782955,2024-10-10 12h40.24.749319 +0530,
136,0,136,[-0.27870370370370373],[0.49907407407407406],[1],[0],[0],[3.439236600417644],['target'],136,0,136,0,231.73914130032063,,10,231.72687090002,231.73914130032063,231.73914130032063,0.03050159988924861,235.16651559993625,[-0.27870370370370373],[0.49907407407407406],[1],[0],[0],[3.439236600417644],['target'],04,001,2024-10-10_12h40.11.041,Visual Search,2024.2.1post4,59.880813269782955,2024-10-10 12h40.24.749319 +0530,
137,0,137,[0.3527777777777778],[-0.20555555555555555],[1],[0],[0],[2.38615889986977],['target'],137,0,137,0,235.19036160036922,,5,235.1804703003727,235.19036160036922,235.19036160036922,0.013794699683785439,237.56706230016425,[0.3527777777777778],[-0.20555555555555555],[1],[0],[0],[2.38615889986977],['target'],04,001,2024-10-10_12h40.11.041,Visual Search,2024.2.1post4,59.880813269782955,2024-10-10 12h40.24.749319 +0530,
138,0,138,[-0.32592592592592595],[-0.16944444444444445],[1],[0],[0],[2.057514499872923],['target'],138,0,138,0,237.60914590023458,,10,237.59624270023778,237.60914590023458,237.60914590023458,0.0289214001968503,239.65415030019358,[-0.32592592592592595],[-0.16944444444444445],[1],[0],[0],[2.057514499872923],['target'],04,001,2024-10-10_12h40.11.041,Visual Search,2024.2.1post4,59.880813269782955,2024-10-10 12h40.24.749319 +0530,
139,0,139,[0.07407407407407407],[-0.000925925925925926],[1],[0],[0],[1.4077917002141476],['target'],139,0,139,0,239.6964432001114,,10,239.68352550035343,239.6964432001114,239.6964432001114,0.029220199678093195,241.09175890032202,[0.07407407407407407],[-0.000925925925925926],[1],[0],[0],[1.4077917002141476],['target'],04,001,2024-10-10_12h40.11.041,Visual Search,2024.2.1post4,59.880813269782955,2024-10-10 12h40.24.749319 +0530,
140,0,140,[0.32685185185185184],[0.012962962962962963],[1],[0],[0],[1.2431099000386894],['target'],140,0,140,0,241.1330666001886,,10,241.11826650006697,241.1330666001886,241.1330666001886,0.026351900305598974,242.36178450006992,[0.32685185185185184],[0.012962962962962963],[1],[0],[0],[1.2431099000386894],['target'],04,001,2024-10-10_12h40.11.041,Visual Search,2024.2.1post4,59.880813269782955,2024-10-10 12h40.24.749319 +0530,
141,0,141,[-0.2972222222222222],[0.000925925925925926],[1],[0],[0],[1.403601999860257],['target'],141,0,141,0,242.38471639994532,,5,242.375355000142,242.38471639994532,242.38471639994532,0.01333709992468357,243.7795438002795,[-0.2972222222222222],[0.000925925925925926],[1],[0],[0],[1.403601999860257],['target'],04,001,2024-10-10_12h40.11.041,Visual Search,2024.2.1post4,59.880813269782955,2024-10-10 12h40.24.749319 +0530,
142,0,142,[0.29907407407407405],[0.10740740740740741],[1],[0],[0],[1.3186026997864246],['target'],142,0,142,0,243.80334570026025,,5,243.79293300025165,243.80334570026025,243.80334570026025,0.013191599864512682,245.1119608003646,[0.29907407407407405],[0.10740740740740741],[1],[0],[0],[1.3186026997864246],['target'],04,001,2024-10-10_12h40.11.041,Visual Search,2024.2.1post4,59.880813269782955,2024-10-10 12h40.24.749319 +0530,
143,0,143,[0.36203703703703705],[0.3990740740740741],[1],[0],[0],[1.319671300239861],['target'],143,0,143,0,245.13425480015576,,5,245.12515969993547,245.13425480015576,245.13425480015576,0.013069500215351582,246.44527620030567,[0.36203703703703705],[0.3990740740740741],[1],[0],[0],[1.319671300239861],['target'],04,001,2024-10-10_12h40.11.041,Visual Search,2024.2.1post4,59.880813269782955,2024-10-10 12h40.24.749319 +0530,
144,0,144,[0.2972222222222222],[0.4888888888888889],[1],[0],[0],[1.5172922001220286],['target'],144,0,144,0,246.4703039000742,,5,246.46151329996064,246.4703039000742,246.4703039000742,0.01607310026884079,247.9792233002372,[0.2972222222222222],[0.4888888888888889],[1],[0],[0],[1.5172922001220286],['target'],04,001,2024-10-10_12h40.11.041,Visual Search,2024.2.1post4,59.880813269782955,2024-10-10 12h40.24.749319 +0530,
145,0,145,[-0.10925925925925926],[0.1824074074074074],[1],[0],[0],[1.4270723997615278],['target'],145,0,145,0,248.02065580012277,,10,248.0058699999936,248.02065580012277,248.02065580012277,0.026529999915510416,249.43351450003684,[-0.10925925925925926],[0.1824074074074074],[1],[0],[0],[1.4270723997615278],['target'],04,001,2024-10-10_12h40.11.041,Visual Search,2024.2.1post4,59.880813269782955,2024-10-10 12h40.24.749319 +0530,
146,0,146,[0.3194444444444444],[-0.32407407407407407],[1],[0],[0],[1.7438145000487566],['target'],146,0,146,0,249.4728604000993,,10,249.45986550021917,249.4728604000993,249.4728604000993,0.02612069994211197,251.20406490005553,[0.3194444444444444],[-0.32407407407407407],[1],[0],[0],[1.7438145000487566],['target'],04,001,2024-10-10_12h40.11.041,Visual Search,2024.2.1post4,59.880813269782955,2024-10-10 12h40.24.749319 +0530,
147,0,147,[0.40925925925925927],[0.42685185185185187],[1],[0],[0],[1.4533701003529131],['target'],147,0,147,0,251.2506687999703,,10,251.2379797999747,251.2506687999703,251.2506687999703,0.03376219980418682,252.69187520025298,[0.40925925925925927],[0.42685185185185187],[1],[0],[0],[1.4533701003529131],['target'],04,001,2024-10-10_12h40.11.041,Visual Search,2024.2.1post4,59.880813269782955,2024-10-10 12h40.24.749319 +0530,
148,0,148,[-0.14814814814814814],[0.3388888888888889],[1],[0],[0],[1.0855495003052056],['target'],148,0,148,0,252.71412619994953,,5,252.7053123000078,252.71412619994953,252.71412619994953,0.013218499720096588,253.79127740021795,[-0.14814814814814814],[0.3388888888888889],[1],[0],[0],[1.0855495003052056],['target'],04,001,2024-10-10_12h40.11.041,Visual Search,2024.2.1post4,59.880813269782955,2024-10-10 12h40.24.749319 +0530,
149,0,149,[-0.17685185185185184],[-0.42685185185185187],[1],[0],[0],[1.6079432000406086],['target'],149,0,149,0,253.83551590004936,,10,253.8205230999738,253.83551590004936,253.83551590004936,0.02909079985693097,255.42887710034847,[-0.17685185185185184],[-0.42685185185185187],[1],[0],[0],[1.6079432000406086],['target'],04,001,2024-10-10_12h40.11.041,Visual Search,2024.2.1post4,59.880813269782955,2024-10-10 12h40.24.749319 +0530,
150,0,150,[-0.3148148148148148],[0.31851851851851853],[1],[0],[0],[1.877471299842],['target'],150,0,150,0,255.467579100281,,10,255.45517030032352,255.467579100281,255.467579100281,0.026140499860048294,257.33304670033976,[-0.3148148148148148],[0.31851851851851853],[1],[0],[0],[1.877471299842],['target'],04,001,2024-10-10_12h40.11.041,Visual Search,2024.2.1post4,59.880813269782955,2024-10-10 12h40.24.749319 +0530,
151,0,151,"[-0.20925925925925926, -0.1648148148148148]","[0.3148148148148148, 0.31203703703703706]","[1, 1]","[0, 0]","[0, 0]","[0.9250576999038458, 1.60732529964298]","[None, 'target']",151,0,151,0,257.3739285999909,,10,257.36157870013267,257.3739285999909,257.3739285999909,0.028314399998635054,258.96951250033453,"[-0.20925925925925926, -0.1648148148148148]","[0.3148148148148148, 0.31203703703703706]","[1, 1]","[0, 0]","[0, 0]","[0.9250576999038458, 1.60732529964298]","[None, 'target']",04,001,2024-10-10_12h40.11.041,Visual Search,2024.2.1post4,59.880813269782955,2024-10-10 12h40.24.749319 +0530,
152,0,152,[0.4787037037037037],[-0.05740740740740741],[1],[0],[0],[1.436712899710983],['target'],152,0,152,0,258.9920243001543,,5,258.98333580000326,258.9920243001543,258.9920243001543,0.013593900017440319,260.42053920030594,[0.4787037037037037],[-0.05740740740740741],[1],[0],[0],[1.436712899710983],['target'],04,001,2024-10-10_12h40.11.041,Visual Search,2024.2.1post4,59.880813269782955,2024-10-10 12h40.24.749319 +0530,
153,0,153,[0.25277777777777777],[-0.021296296296296296],[1],[0],[0],[1.160637800116092],['target'],153,0,153,0,260.46014130022377,,10,260.4469636003487,260.46014130022377,260.46014130022377,0.026234399992972612,261.6080195000395,[0.25277777777777777],[-0.021296296296296296],[1],[0],[0],[1.160637800116092],['target'],04,001,2024-10-10_12h40.11.041,Visual Search,2024.2.1post4,59.880813269782955,2024-10-10 12h40.24.749319 +0530,
154,0,154,"[-0.27685185185185185, -0.29074074074074074]","[0.1398148148148148, 0.1425925925925926]","[1, 1]","[0, 0]","[0, 0]","[1.2024104003794491, 1.8854853003285825]","[None, 'target']",154,0,154,0,261.6303039002232,,5,261.62152530020103,261.6303039002232,261.6303039002232,0.013347500003874302,263.50746050011367,"[-0.27685185185185185, -0.29074074074074074]","[0.1398148148148148, 0.1425925925925926]","[1, 1]","[0, 0]","[0, 0]","[1.2024104003794491, 1.8854853003285825]","[None, 'target']",04,001,2024-10-10_12h40.11.041,Visual Search,2024.2.1post4,59.880813269782955,2024-10-10 12h40.24.749319 +0530,
155,0,155,[0.06111111111111111],[-0.45925925925925926],[1],[0],[0],[1.7724897996522486],['target'],155,0,155,0,263.5531467003748,,10,263.53915560012683,263.5531467003748,263.5531467003748,0.031548500061035156,265.3120900001377,[0.06111111111111111],[-0.45925925925925926],[1],[0],[0],[1.7724897996522486],['target'],04,001,2024-10-10_12h40.11.041,Visual Search,2024.2.1post4,59.880813269782955,2024-10-10 12h40.24.749319 +0530,
156,0,156,[-0.2675925925925926],[-0.1648148148148148],[1],[0],[0],[1.5590662001632154],['target'],156,0,156,0,265.3541954001412,,10,265.3400893001817,265.3541954001412,265.3541954001412,0.02785310009494424,266.8996375002898,[-0.2675925925925926],[-0.1648148148148148],[1],[0],[0],[1.5590662001632154],['target'],04,001,2024-10-10_12h40.11.041,Visual Search,2024.2.1post4,59.880813269782955,2024-10-10 12h40.24.749319 +0530,
157,0,157,[-0.37222222222222223],[-0.45],[1],[0],[0],[2.4026453997939825],['target'],157,0,157,0,266.9224228002131,,5,266.9135206001811,266.9224228002131,266.9224228002131,0.01372000016272068,269.316646900028,[-0.37222222222222223],[-0.45],[1],[0],[0],[2.4026453997939825],['target'],04,001,2024-10-10_12h40.11.041,Visual Search,2024.2.1post4,59.880813269782955,2024-10-10 12h40.24.749319 +0530,
158,0,158,[-0.28888888888888886],[-0.35],[1],[0],[0],[1.2322444003075361],['target'],158,0,158,0,269.3419372001663,,5,269.33282680017874,269.3419372001663,269.3419372001663,0.01601869985461235,270.56548900017515,[-0.28888888888888886],[-0.35],[1],[0],[0],[1.2322444003075361],['target'],04,001,2024-10-10_12h40.11.041,Visual Search,2024.2.1post4,59.880813269782955,2024-10-10 12h40.24.749319 +0530,
159,0,159,[-0.4],[0.47962962962962963],[1],[0],[0],[2.3851932999677956],['target'],159,0,159,0,270.5896899001673,,5,270.5801528003067,270.5896899001673,270.5896899001673,0.014544600155204535,272.9658960001543,[-0.4],[0.47962962962962963],[1],[0],[0],[2.3851932999677956],['target'],04,001,2024-10-10_12h40.11.041,Visual Search,2024.2.1post4,59.880813269782955,2024-10-10 12h40.24.749319 +0530,
160,0,160,[-0.33240740740740743],[0.22407407407407406],[1],[0],[0],[1.2237277999520302],['target'],160,0,160,0,273.0107528003864,,10,272.99601140012965,273.0107528003864,273.0107528003864,0.02972929971292615,274.2204299001023,[-0.33240740740740743],[0.22407407407407406],[1],[0],[0],[1.2237277999520302],['target'],04,001,2024-10-10_12h40.11.041,Visual Search,2024.2.1post4,59.880813269782955,2024-10-10 12h40.24.749319 +0530,
161,0,161,[0.2064814814814815],[-0.025],[1],[0],[0],[1.4185933000408113],['target'],161,0,161,0,274.2437889003195,,5,274.2343697003089,274.2437889003195,274.2437889003195,0.013671300373971462,275.6534100002609,[0.2064814814814815],[-0.025],[1],[0],[0],[1.4185933000408113],['target'],04,001,2024-10-10_12h40.11.041,Visual Search,2024.2.1post4,59.880813269782955,2024-10-10 12h40.24.749319 +0530,
162,0,162,[0.4898148148148148],[0.002777777777777778],[1],[0],[0],[1.2666132999584079],['target'],162,0,162,0,275.6779881999828,,5,275.66958730015904,275.6779881999828,275.6779881999828,0.016005299985408783,276.93662689998746,[0.4898148148148148],[0.002777777777777778],[1],[0],[0],[1.2666132999584079],['target'],04,001,2024-10-10_12h40.11.041,Visual Search,2024.2.1post4,59.880813269782955,2024-10-10 12h40.24.749319 +0530,
163,0,163,[-0.38425925925925924],[0.24444444444444444],[1],[0],[0],[2.4399465997703373],['target'],163,0,163,0,276.98041020007804,,10,276.96799760032445,276.98041020007804,276.98041020007804,0.031198599841445684,279.4084710003808,[-0.38425925925925924],[0.24444444444444444],[1],[0],[0],[2.4399465997703373],['target'],04,001,2024-10-10_12h40.11.041,Visual Search,2024.2.1post4,59.880813269782955,2024-10-10 12h40.24.749319 +0530,
164,0,164,[0.2212962962962963],[-0.2935185185185185],[1],[0],[0],[1.474845000077039],['target'],164,0,164,0,279.4491582000628,,10,279.43677909998223,279.4491582000628,279.4491582000628,0.028014499694108963,280.9120264002122,[0.2212962962962963],[-0.2935185185185185],[1],[0],[0],[1.474845000077039],['target'],04,001,2024-10-10_12h40.11.041,Visual Search,2024.2.1post4,59.880813269782955,2024-10-10 12h40.24.749319 +0530,
165,0,165,[0.1537037037037037],[0.125],[1],[0],[0],[1.2097938996739686],['target'],165,0,165,0,280.95172170037404,,10,280.93875780003145,280.95172170037404,280.95172170037404,0.026577599812299013,282.1489719003439,[0.1537037037037037],[0.125],[1],[0],[0],[1.2097938996739686],['target'],04,001,2024-10-10_12h40.11.041,Visual Search,2024.2.1post4,59.880813269782955,2024-10-10 12h40.24.749319 +0530,
166,0,166,[-0.4074074074074074],[0.09722222222222222],[1],[0],[0],[2.722337500192225],['target'],166,0,166,0,282.1934789000079,,10,282.18014009995386,282.1934789000079,282.1934789000079,0.030942799989134073,284.9028815003112,[-0.4074074074074074],[0.09722222222222222],[1],[0],[0],[2.722337500192225],['target'],04,001,2024-10-10_12h40.11.041,Visual Search,2024.2.1post4,59.880813269782955,2024-10-10 12h40.24.749319 +0530,
167,0,167,[-0.45555555555555555],[-0.07685185185185185],[1],[0],[0],[1.0248639001511037],['target'],167,0,167,0,284.94502370012924,,10,284.93250210024416,284.94502370012924,284.94502370012924,0.029463599901646376,285.9577879002318,[-0.45555555555555555],[-0.07685185185185185],[1],[0],[0],[1.0248639001511037],['target'],04,001,2024-10-10_12h40.11.041,Visual Search,2024.2.1post4,59.880813269782955,2024-10-10 12h40.24.749319 +0530,
168,0,168,[0.058333333333333334],[-0.45185185185185184],[1],[0],[0],[1.8276165998540819],['target'],168,0,168,0,285.9969355999492,,10,285.98393870005384,285.9969355999492,285.9969355999492,0.025994599796831608,287.81200350029394,[0.058333333333333334],[-0.45185185185185184],[1],[0],[0],[1.8276165998540819],['target'],04,001,2024-10-10_12h40.11.041,Visual Search,2024.2.1post4,59.880813269782955,2024-10-10 12h40.24.749319 +0530,
169,0,169,[0.3638888888888889],[-0.43703703703703706],[1],[0],[0],[1.3814906999468803],['target'],169,0,169,0,287.8415663000196,,5,287.8295680000447,287.8415663000196,287.8415663000196,0.017363199964165688,289.211462800391,[0.3638888888888889],[-0.43703703703703706],[1],[0],[0],[1.3814906999468803],['target'],04,001,2024-10-10_12h40.11.041,Visual Search,2024.2.1post4,59.880813269782955,2024-10-10 12h40.24.749319 +0530,
170,0,170,"[-0.40925925925925927, -0.44351851851851853]","[-0.3861111111111111, -0.37777777777777777]","[1, 1]","[0, 0]","[0, 0]","[1.5197962000966072, 2.120071600191295]","[None, 'target']",170,0,170,0,289.23394310008734,,5,289.224880900234,289.23394310008734,289.23394310008734,0.013247400056570768,291.3454305003397,"[-0.40925925925925927, -0.44351851851851853]","[-0.3861111111111111, -0.37777777777777777]","[1, 1]","[0, 0]","[0, 0]","[1.5197962000966072, 2.120071600191295]","[None, 'target']",04,001,2024-10-10_12h40.11.041,Visual Search,2024.2.1post4,59.880813269782955,2024-10-10 12h40.24.749319 +0530,
171,0,171,[-0.15648148148148147],[-0.337037037037037],[1],[0],[0],[1.1770124998874962],['target'],171,0,171,0,291.38618050003424,,10,291.371680600103,291.38618050003424,291.38618050003424,0.02609590021893382,292.54907660000026,[-0.15648148148148147],[-0.337037037037037],[1],[0],[0],[1.1770124998874962],['target'],04,001,2024-10-10_12h40.11.041,Visual Search,2024.2.1post4,59.880813269782955,2024-10-10 12h40.24.749319 +0530,
172,0,172,[0.10648148148148148],[0.47962962962962963],[1],[0],[0],[2.051762199960649],['target'],172,0,172,0,292.57426339993253,,5,292.56410250021145,292.57426339993253,292.57426339993253,0.014882499817758799,294.6165704000741,[0.10648148148148148],[0.47962962962962963],[1],[0],[0],[2.051762199960649],['target'],04,001,2024-10-10_12h40.11.041,Visual Search,2024.2.1post4,59.880813269782955,2024-10-10 12h40.24.749319 +0530,
173,0,173,[-0.17407407407407408],[-0.47685185185185186],[1],[0],[0],[2.548499499913305],['target'],173,0,173,0,294.6423570001498,,5,294.63333170022815,294.6423570001498,294.6423570001498,0.01649070018902421,297.18244680017233,[-0.17407407407407408],[-0.47685185185185186],[1],[0],[0],[2.548499499913305],['target'],04,001,2024-10-10_12h40.11.041,Visual Search,2024.2.1post4,59.880813269782955,2024-10-10 12h40.24.749319 +0530,
174,0,174,[-0.21296296296296297],[-0.24814814814814815],[1],[0],[0],[1.3350941999815404],['target'],174,0,174,0,297.20519920019433,,5,297.196363999974,297.20519920019433,297.20519920019433,0.013694799970835447,298.53187680011615,[-0.21296296296296297],[-0.24814814814814815],[1],[0],[0],[1.3350941999815404],['target'],04,001,2024-10-10_12h40.11.041,Visual Search,2024.2.1post4,59.880813269782955,2024-10-10 12h40.24.749319 +0530,
175,0,175,[0.22592592592592592],[-0.29814814814814816],[1],[0],[0],[1.6435416000895202],['target'],175,0,175,0,298.57131469994783,,10,298.55905030015856,298.57131469994783,298.57131469994783,0.027011800091713667,300.2030995003879,[0.22592592592592592],[-0.29814814814814816],[1],[0],[0],[1.6435416000895202],['target'],04,001,2024-10-10_12h40.11.041,Visual Search,2024.2.1post4,59.880813269782955,2024-10-10 12h40.24.749319 +0530,
176,0,176,[0.17222222222222222],[0.07685185185185185],[1],[0],[0],[1.2283779997378588],['target'],176,0,176,0,300.2421079003252,,10,300.2296135001816,300.2421079003252,300.2421079003252,0.026244099717587233,301.45843270001933,[0.17222222222222222],[0.07685185185185185],[1],[0],[0],[1.2283779997378588],['target'],04,001,2024-10-10_12h40.11.041,Visual Search,2024.2.1post4,59.880813269782955,2024-10-10 12h40.24.749319 +0530,
177,0,177,[-0.06296296296296296],[-0.1388888888888889],[1],[0],[0],[1.2187590999528766],['target'],177,0,177,0,301.4810494002886,,5,301.4722708002664,301.4810494002886,301.4810494002886,0.013684599660336971,302.69154040003195,[-0.06296296296296296],[-0.1388888888888889],[1],[0],[0],[1.2187590999528766],['target'],04,001,2024-10-10_12h40.11.041,Visual Search,2024.2.1post4,59.880813269782955,2024-10-10 12h40.24.749319 +0530,
178,0,178,[-0.3351851851851852],[0.18055555555555555],[1],[0],[0],[2.8066083998419344],['target'],178,0,178,0,302.734902900178,,10,302.7213035002351,302.734902900178,302.734902900178,0.029637400060892105,305.52846190007403,[-0.3351851851851852],[0.18055555555555555],[1],[0],[0],[2.8066083998419344],['target'],04,001,2024-10-10_12h40.11.041,Visual Search,2024.2.1post4,59.880813269782955,2024-10-10 12h40.24.749319 +0530,
179,0,179,[-0.19722222222222222],[0.4824074074074074],[1],[0],[0],[2.83962590014562],['target'],179,0,179,0,305.5706172999926,,10,305.558300900273,305.5706172999926,305.5706172999926,0.02963120024651289,308.3984127002768,[-0.19722222222222222],[0.4824074074074074],[1],[0],[0],[2.83962590014562],['target'],04,001,2024-10-10_12h40.11.041,Visual Search,2024.2.1post4,59.880813269782955,2024-10-10 12h40.24.749319 +0530,
180,0,180,[-0.11018518518518519],[0.10925925925925926],[1],[0],[0],[1.084283099975437],['target'],180,0,180,0,308.42584480019286,,5,308.4147601001896,308.42584480019286,308.42584480019286,0.016079199966043234,309.4994518002495,[-0.11018518518518519],[0.10925925925925926],[1],[0],[0],[1.084283099975437],['target'],04,001,2024-10-10_12h40.11.041,Visual Search,2024.2.1post4,59.880813269782955,2024-10-10 12h40.24.749319 +0530,
181,0,181,[0.14444444444444443],[0.3333333333333333],[1],[0],[0],[1.0594180999323726],['target'],181,0,181,0,309.5397896999493,,10,309.526106600184,309.5397896999493,309.5397896999493,0.02652690000832081,310.58601110009477,[0.14444444444444443],[0.3333333333333333],[1],[0],[0],[1.0594180999323726],['target'],04,001,2024-10-10_12h40.11.041,Visual Search,2024.2.1post4,59.880813269782955,2024-10-10 12h40.24.749319 +0530,
182,0,182,"[0.44907407407407407, 0.44166666666666665]","[-0.4425925925925926, -0.44722222222222224]","[1, 1]","[0, 0]","[0, 0]","[2.278123199939728, 3.043875599745661]","[None, 'target']",182,0,182,0,310.62521590013057,,10,310.6119780000299,310.62521590013057,310.62521590013057,0.02580949990078807,313.6564224003814,"[0.44907407407407407, 0.44166666666666665]","[-0.4425925925925926, -0.44722222222222224]","[1, 1]","[0, 0]","[0, 0]","[2.278123199939728, 3.043875599745661]","[None, 'target']",04,001,2024-10-10_12h40.11.041,Visual Search,2024.2.1post4,59.880813269782955,2024-10-10 12h40.24.749319 +0530,
183,0,183,[0.2759259259259259],[-0.049074074074074076],[1],[0],[0],[1.641185300424695],['target'],183,0,183,0,313.6988062001765,,10,313.68646170012653,313.6988062001765,313.6988062001765,0.02985490020364523,315.3280390002765,[0.2759259259259259],[-0.049074074074074076],[1],[0],[0],[1.641185300424695],['target'],04,001,2024-10-10_12h40.11.041,Visual Search,2024.2.1post4,59.880813269782955,2024-10-10 12h40.24.749319 +0530,
184,0,184,[-0.3509259259259259],[0.39814814814814814],[1],[0],[0],[1.7506655999459326],['target'],184,0,184,0,315.3532092003152,,5,315.34323920030147,315.3532092003152,315.3532092003152,0.015054500196129084,317.0943105001934,[-0.3509259259259259],[0.39814814814814814],[1],[0],[0],[1.7506655999459326],['target'],04,001,2024-10-10_12h40.11.041,Visual Search,2024.2.1post4,59.880813269782955,2024-10-10 12h40.24.749319 +0530,
185,0,185,[-0.44907407407407407],[0.18888888888888888],[1],[0],[0],[1.4405013001523912],['target'],185,0,185,0,317.13731699995697,,10,317.1242287000641,317.13731699995697,317.13731699995697,0.029790100175887346,318.5653189001605,[-0.44907407407407407],[0.18888888888888888],[1],[0],[0],[1.4405013001523912],['target'],04,001,2024-10-10_12h40.11.041,Visual Search,2024.2.1post4,59.880813269782955,2024-10-10 12h40.24.749319 +0530,
186,0,186,[-0.2796296296296296],[-0.262037037037037],[1],[0],[0],[1.6198183000087738],['target'],186,0,186,0,318.5873357001692,,5,318.5784444003366,318.5873357001692,318.5873357001692,0.012977399863302708,320.1986783002503,[-0.2796296296296296],[-0.262037037037037],[1],[0],[0],[1.6198183000087738],['target'],04,001,2024-10-10_12h40.11.041,Visual Search,2024.2.1post4,59.880813269782955,2024-10-10 12h40.24.749319 +0530,
187,0,187,[0.18055555555555555],[-0.017592592592592594],[1],[0],[0],[1.2693722997792065],['target'],187,0,187,0,320.2212612000294,,5,320.21190039999783,320.2212612000294,320.2212612000294,0.013096400070935488,321.4817383000627,[0.18055555555555555],[-0.017592592592592594],[1],[0],[0],[1.2693722997792065],['target'],04,001,2024-10-10_12h40.11.041,Visual Search,2024.2.1post4,59.880813269782955,2024-10-10 12h40.24.749319 +0530,
188,0,188,[0.18055555555555555],[-0.07222222222222222],[1],[0],[0],[1.107718899846077],['target'],188,0,188,0,321.52463660016656,,10,321.5111643001437,321.52463660016656,321.52463660016656,0.02927259961143136,322.61931869992986,[0.18055555555555555],[-0.07222222222222222],[1],[0],[0],[1.107718899846077],['target'],04,001,2024-10-10_12h40.11.041,Visual Search,2024.2.1post4,59.880813269782955,2024-10-10 12h40.24.749319 +0530,
189,0,189,[-0.2675925925925926],[0.2324074074074074],[1],[0],[0],[1.3606970999389887],['target'],189,0,189,0,322.65815050015226,,10,322.6458997000009,322.65815050015226,322.65815050015226,0.026437500026077032,324.006993799936,[-0.2675925925925926],[0.2324074074074074],[1],[0],[0],[1.3606970999389887],['target'],04,001,2024-10-10_12h40.11.041,Visual Search,2024.2.1post4,59.880813269782955,2024-10-10 12h40.24.749319 +0530,
190,0,190,[-0.05740740740740741],[-0.2601851851851852],[1],[0],[0],[1.1859510000795126],['target'],190,0,190,0,324.029549700208,,5,324.02066700020805,324.029549700208,324.029549700208,0.013461200054734945,325.20712540019304,[-0.05740740740740741],[-0.2601851851851852],[1],[0],[0],[1.1859510000795126],['target'],04,001,2024-10-10_12h40.11.041,Visual Search,2024.2.1post4,59.880813269782955,2024-10-10 12h40.24.749319 +0530,
191,0,191,[-0.3611111111111111],[-0.1638888888888889],[1],[0],[0],[1.418863599654287],['target'],191,0,191,0,325.22951960004866,,5,325.2209381000139,325.22951960004866,325.22951960004866,0.013612399809062481,326.6402609003708,[-0.3611111111111111],[-0.1638888888888889],[1],[0],[0],[1.418863599654287],['target'],04,001,2024-10-10_12h40.11.041,Visual Search,2024.2.1post4,59.880813269782955,2024-10-10 12h40.24.749319 +0530,
192,0,192,[-0.020370370370370372],[0.22777777777777777],[1],[0],[0],[1.6104500000365078],['target'],192,0,192,0,326.6794769000262,,10,326.66676070028916,326.6794769000262,326.6794769000262,0.026373700238764286,328.27776410011575,[-0.020370370370370372],[0.22777777777777777],[1],[0],[0],[1.6104500000365078],['target'],04,001,2024-10-10_12h40.11.041,Visual Search,2024.2.1post4,59.880813269782955,2024-10-10 12h40.24.749319 +0530,
193,0,193,[-0.2101851851851852],[0.32685185185185184],[1],[0],[0],[1.193734200205654],['target'],193,0,193,0,328.31692210026085,,10,328.30440600030124,328.31692210026085,328.31692210026085,0.026378300040960312,329.4986712001264,[-0.2101851851851852],[0.32685185185185184],[1],[0],[0],[1.193734200205654],['target'],04,001,2024-10-10_12h40.11.041,Visual Search,2024.2.1post4,59.880813269782955,2024-10-10 12h40.24.749319 +0530,
194,0,194,[0.21388888888888888],[0.1675925925925926],[1],[0],[0],[1.140625299885869],['target'],194,0,194,0,329.5408040001057,,10,329.5284517002292,329.5408040001057,329.5408040001057,0.029548299964517355,330.6695119002834,[0.21388888888888888],[0.1675925925925926],[1],[0],[0],[1.140625299885869],['target'],04,001,2024-10-10_12h40.11.041,Visual Search,2024.2.1post4,59.880813269782955,2024-10-10 12h40.24.749319 +0530,
195,0,195,[-0.23055555555555557],[0.02962962962962963],[1],[0],[0],[1.1821771999821067],['target'],195,0,195,0,330.6983257001266,,5,330.6869260002859,330.6983257001266,330.6983257001266,0.017222300171852112,331.8695607003756,[-0.23055555555555557],[0.02962962962962963],[1],[0],[0],[1.1821771999821067],['target'],04,001,2024-10-10_12h40.11.041,Visual Search,2024.2.1post4,59.880813269782955,2024-10-10 12h40.24.749319 +0530,
196,0,196,[0.31296296296296294],[-0.03611111111111111],[1],[0],[0],[1.4758744998835027],['target'],196,0,196,0,331.9126306003891,,10,331.8976676003076,331.9126306003891,331.9126306003891,0.027988300193101168,333.3740346003324,[0.31296296296296294],[-0.03611111111111111],[1],[0],[0],[1.4758744998835027],['target'],04,001,2024-10-10_12h40.11.041,Visual Search,2024.2.1post4,59.880813269782955,2024-10-10 12h40.24.749319 +0530,
197,0,197,[-0.325],[0.10833333333333334],[1],[0],[0],[1.2154240999370813],['target'],197,0,197,0,333.4006023001857,,5,333.39124369993806,333.4006023001857,333.4006023001857,0.017000399995595217,334.6071008001454,[-0.325],[0.10833333333333334],[1],[0],[0],[1.2154240999370813],['target'],04,001,2024-10-10_12h40.11.041,Visual Search,2024.2.1post4,59.880813269782955,2024-10-10 12h40.24.749319 +0530,
198,0,198,[0.4462962962962963],[-0.0712962962962963],[1],[0],[0],[1.4599895998835564],['target'],198,0,198,0,334.6471057003364,,10,334.63426230009645,334.6471057003364,334.6471057003364,0.026994099840521812,336.09464449994266,[0.4462962962962963],[-0.0712962962962963],[1],[0],[0],[1.4599895998835564],['target'],04,001,2024-10-10_12h40.11.041,Visual Search,2024.2.1post4,59.880813269782955,2024-10-10 12h40.24.749319 +0530,
199,0,199,[-0.05555555555555555],[0.337037037037037],[1],[0],[0],[2.3239174000918865],['target'],199,0,199,0,336.1388727002777,,10,336.1238839002326,336.1388727002777,336.1388727002777,0.029092800337821245,338.44824200030416,[-0.05555555555555555],[0.337037037037037],[1],[0],[0],[2.3239174000918865],['target'],04,001,2024-10-10_12h40.11.041,Visual Search,2024.2.1post4,59.880813269782955,2024-10-10 12h40.24.749319 +0530,
